timestamp,ax,ay,az,gx,gy,gz
961415,1.1675,0.0095,0.4324,-13.6108,-9.6436,17.5171
961436,1.0299,0.0063,0.5458,-14.0991,-19.4092,14.0991
961456,1.0143,0.0197,0.6014,-11.0474,-12.4512,11.4136
961476,0.9916,0.062,0.6699,-10.6201,-5.7373,11.8408
961496,0.8418,0.0925,0.6647,-10.1318,-1.0376,10.5591
961517,0.7659,0.1068,0.6282,-16.0522,8.8501,4.7607
961538,0.806,0.1077,0.5719,-19.8364,7.5684,0
961561,0.7936,0.0822,0.5757,-23.8647,3.1738,-5.4321
961581,0.8138,0.0852,0.5454,-25.3296,0.7935,-9.9487
961601,0.7902,0.1152,0.514,-23.3154,-3.8452,-18.0664
961621,0.79,0.1359,0.484,-20.9961,0.9155,-21.4844
961641,0.8198,0.1648,0.457,-20.0806,4.6997,-19.8975
961661,0.8124,0.1654,0.4047,-16.4795,3.6621,-18.0664
961681,0.7926,0.1421,0.3909,-11.8408,-0.9766,-16.4185
961701,0.7871,0.1459,0.3865,-10.498,4.2114,-14.1602
961722,0.7904,0.1372,0.3531,-8.4839,4.2725,-12.2681
961742,0.8032,0.1133,0.3391,-6.5308,3.9062,-11.1084
961762,0.7446,0.0875,0.3011,-2.6245,-0.8545,-11.0474
961782,0.7384,0.0807,0.2886,-0.6104,-2.6855,-10.1929
961802,0.7286,0.089,0.2806,-0.2441,-1.4038,-10.1318
961822,0.712,0.0931,0.2736,0.6714,-0.3662,-8.4839
961842,0.7257,0.1285,0.292,4.6387,-4.8218,-5.7373
961862,0.7849,0.1075,0.3301,5.6152,-6.8359,-3.9062
961882,0.8176,0.061,0.3019,5.8594,-7.2632,-2.3193
961902,0.812,0.0287,0.3457,2.9907,-4.6997,-2.4414
961922,0.8063,0.0781,0.3829,4.8828,-8.0566,-5.8594
961942,0.8838,0.1289,0.3862,8.1177,-3.9673,-5.9814
961962,1.0001,0.1193,0.3832,13.5498,-1.8311,-4.8218
961982,1.0078,0.1002,0.3986,14.4043,-1.4038,-5.9204
962004,1.0568,0.1201,0.4395,14.8926,-0.6714,-6.6528
962024,1.1561,0.1035,0.5264,19.2871,0.4272,-4.5776
962044,1.2388,0.0498,0.4548,21.0571,-1.2817,-3.7842
962064,0.9984,-0.0161,0.6737,23.4375,-0.4272,-7.2632
962084,1.1206,-0.0902,0.701,22.1558,1.5869,-6.958
962105,0.9878,-0.2061,0.7214,17.1509,4.6997,-8.0566
962145,0.9003,-0.1267,0.6163,16.9067,14.8926,-10.0098
962169,0.9196,-0.1161,0.5566,22.8882,17.0288,-1.6479
962192,0.8274,-0.1072,0.5062,25.3296,18.8599,5.4932
962212,0.8287,-0.115,0.4777,25.0854,7.5073,13.1226
962232,0.8652,-0.0989,0.4091,24.7803,5.9204,18.2495
962252,0.8317,-0.1094,0.3623,21.9116,6.7139,19.8975
962272,0.7612,-0.1443,0.3342,18.9209,8.0566,19.4702
962292,0.7526,-0.1382,0.3163,16.1133,6.4697,19.9585
962312,0.7397,-0.1554,0.303,12.7563,7.9346,18.4326
962332,0.7883,-0.1519,0.2736,9.7046,8.728,17.8833
962352,0.8043,-0.1392,0.2656,8.4229,-14.2212,16.7236
962372,0.7563,-0.0865,0.2629,7.6904,-6.3477,16.9678
962392,0.75,-0.0889,0.251,7.1411,-11.8408,17.0288
962412,0.7177,-0.1223,0.2736,5.6763,-16.8457,15.3809
962432,0.7241,-0.1267,0.2841,3.418,-15.5029,14.4653
962452,0.7498,-0.1277,0.287,-0.5493,-7.8125,14.8926
962472,0.7576,-0.1331,0.3185,-0.6104,-12.4512,12.9395
962492,0.8411,-0.1071,0.3279,-1.0986,-5.4321,9.7046
962512,0.9233,-0.0533,0.3231,-1.5259,-5.188,10.6201
962532,0.9703,-0.0508,0.3621,-1.0376,-12.207,14.2212
962552,0.9937,-0.0405,0.3643,-2.6855,-12.2681,16.4795
962572,1.0236,-0.0017,0.3772,-3.9062,-11.2915,18.7378
962592,1.0079,-0.0458,0.3917,-5.3711,-8.4839,21.6675
962612,1.0709,-0.0719,0.4855,-9.0332,2.3804,20.0195
962632,1.2488,0.0406,0.4827,-6.958,1.77,18.6768
962652,0.989,0.0522,0.6948,-5.4932,-13.1836,10.6812
962672,1.1195,0.1066,0.7084,-4.4556,-3.3569,10.2539
962692,1.0831,0.1621,0.733,-1.6479,-9.5825,9.8267
962712,0.8939,0.1702,0.7401,-0.9155,-12.2681,8.728
962732,0.7844,0.1056,0.6855,-5.9814,3.479,8.3618
962752,0.7275,0.064,0.7172,-13.9771,9.4604,3.9673
962772,0.7852,0.0491,0.6232,-24.1089,12.4512,-6.897
962792,0.7808,0.1141,0.577,-22.0947,8.3008,-20.5688
962812,0.7986,0.1259,0.5621,-19.8364,13.6108,-22.7051
962836,0.8555,0.1644,0.4731,-19.5923,21.7285,-20.5688
962856,0.8215,0.1605,0.4117,-14.9536,11.2305,-21.6675
962880,0.7617,0.1121,0.3716,-13.1226,11.1694,-19.7754
962900,0.7509,0.1172,0.3425,-12.8174,13.7939,-16.1743
962920,0.7743,0.1206,0.3168,-12.6953,17.2119,-13.6108
962940,0.749,0.1017,0.2838,-7.6904,5.4321,-14.8315
962962,0.7015,0.1101,0.2644,-1.8921,-2.5024,-16.1133
962982,0.6608,0.1063,0.2562,-0.7935,-0.2441,-12.6953
963005,0.7051,0.1053,0.2576,-0.061,1.2817,-7.7515
963025,0.7395,0.103,0.2739,2.3804,-6.0425,-4.7607
963045,0.7649,0.1017,0.2925,3.0518,-6.6528,-4.6387
963065,0.7683,0.095,0.3077,4.0894,-8.4839,-4.2725
963085,0.765,0.0989,0.3474,6.5308,-10.6201,-3.7842
963105,0.8204,0.1093,0.3562,8.1177,-5.127,-2.1973
963129,0.9072,0.1254,0.355,10.2539,0.1831,-3.1738
963151,0.9911,0.0963,0.3689,12.4512,1.3428,-4.2114
963171,1.0663,0.062,0.3514,12.6343,2.4414,-5.3711
963191,1.0737,0.0684,0.4211,13.916,1.0376,-9.4604
963211,1.1772,0.0951,0.4722,18.1885,4.4556,-8.728
963231,1.1992,0.0071,0.493,17.5171,3.479,-6.897
963251,1.04,-0.051,0.6171,16.4185,6.5918,-9.2773
963271,1.1361,-0.1141,0.6481,15.4419,8.4229,-7.3853
963291,1.0331,-0.2128,0.6732,8.7891,8.4229,-7.5073
963311,0.9099,-0.2183,0.6655,3.6621,13.6719,-10.1318
963334,0.9073,-0.1224,0.5958,6.4087,17.7002,-7.6904
963354,0.9482,-0.0956,0.5623,13.916,11.5356,-1.8311
963374,0.8546,-0.0874,0.4954,16.7847,17.5781,5.7373
963394,0.8433,-0.1152,0.4658,15.4419,12.5122,10.498
963416,0.876,-0.1083,0.3846,14.2212,9.7656,13.2446
963437,0.8564,-0.1007,0.3542,13.5498,9.2773,15.1978
963457,0.7848,-0.0927,0.3019,8.8501,6.7749,14.1602
963477,0.7699,-0.0983,0.2722,7.7515,2.7466,14.4043
963497,0.767,-0.1409,0.2723,5.6763,-6.1646,11.8408
963517,0.7732,-0.1173,0.2695,3.1128,2.1362,10.7422
963537,0.7732,-0.1062,0.2601,-0.9766,-7.3242,9.5825
963557,0.7697,-0.0751,0.2488,-3.8452,-1.9531,10.0098
963577,0.7656,-0.0847,0.2471,-3.1128,-10.8032,10.0098
963597,0.7637,-0.1036,0.233,-1.3428,-18.9819,8.8501
963617,0.7128,-0.1052,0.2765,-2.8076,-21.6064,6.7749
963637,0.7236,-0.1086,0.2905,-4.0894,-20.5078,3.7842
963657,0.7053,-0.1161,0.3317,-7.4463,-9.8267,1.0986
963677,0.8131,-0.0634,0.3247,-7.6294,-1.2817,1.9531
963697,0.9021,-0.0444,0.3241,-3.3569,-0.061,6.1646
963717,0.9462,-0.0699,0.3439,-3.418,-1.5869,7.8735
963737,0.9886,-0.0674,0.3503,-5.3711,-1.2207,11.1694
963757,1.0707,-0.0387,0.3479,-7.2632,-4.4556,12.3291
963777,1.0573,-0.0552,0.3712,-11.5356,-1.8311,14.6484
963798,1.1599,-0.0448,0.457,-14.4043,9.9487,14.7095
963818,1.3228,0.0535,0.4352,-6.7139,-4.0283,13.0005
963838,1.0531,0.0573,0.5996,-5.6152,-10.3149,7.8125
963859,1.0972,0.1342,0.67,-3.418,-1.2817,7.019
963879,0.8625,0.1619,0.6823,-1.8311,1.5259,7.5073
963900,0.7969,0.1378,0.7063,-3.418,10.1318,6.5308
963920,0.8087,0.0992,0.6183,-8.5449,17.8833,4.9438
963940,0.8358,0.0597,0.6283,-18.1274,19.8364,0.1831
963964,0.9001,0.0571,0.5394,-21.4233,17.6392,-6.958
963984,0.8749,0.1315,0.4938,-17.8833,14.8926,-14.5264
964004,0.8959,0.1519,0.4326,-12.6343,18.7988,-14.8315
964024,0.8927,0.1466,0.3856,-10.498,12.6343,-15.9912
964044,0.8091,0.1378,0.3364,-10.8032,19.104,-15.5029
964064,0.7766,0.1349,0.3203,-10.0098,16.0522,-14.5264
964088,0.7747,0.1238,0.2759,-7.2021,14.4653,-11.9019
964108,0.7594,0.1113,0.2512,-3.6011,5.4321,-10.0708
964128,0.7545,0.1055,0.2371,-0.1221,0.2441,-9.5215
964149,0.7509,0.1079,0.2247,3.1738,-6.1646,-7.3242
964169,0.7397,0.1045,0.224,4.3335,-9.3384,-6.3477
964190,0.718,0.0902,0.2344,4.5776,-11.0474,-5.6152
964210,0.7333,0.0999,0.2577,5.8594,-12.2681,-2.8687
964231,0.7437,0.0892,0.2439,6.7749,-10.8032,-1.9531
964251,0.7754,0.0659,0.2635,7.9346,-7.019,-1.77
964271,0.8357,0.0653,0.2694,8.1177,-5.127,-2.0752
964291,0.9531,0.0806,0.2717,6.5308,-1.4038,-2.6855
964311,0.9993,0.0875,0.3127,6.897,-3.7231,-3.1738
964333,1.0614,0.089,0.2822,8.606,-7.4463,-3.9062
964353,1.1035,0.0552,0.3044,8.5449,-9.2773,-5.7373
964373,1.0387,0.0814,0.361,11.4746,-8.1177,-9.7656
964393,1.1512,0.0867,0.429,12.8784,-2.0142,-10.6201
964413,1.2729,0.0442,0.3649,13.7939,-1.6479,-8.5449
964433,1.0231,-0.0306,0.5848,11.7798,-3.418,-9.5825
964453,1.0945,-0.0991,0.5861,9.5215,3.6011,-6.1035
964473,1.0939,-0.2017,0.6315,4.8218,6.7139,-5.0659
964493,0.9452,-0.2438,0.6307,-2.0142,8.4839,-7.9346
964513,0.9659,-0.1794,0.6055,-1.4648,8.4229,-9.5215
964536,0.9767,-0.098,0.5599,6.3477,13.9771,-2.2583
964556,0.9186,-0.0841,0.5104,11.9629,1.2207,5.7983
964576,0.8544,-0.0928,0.4812,13.1226,-0.6714,10.1318
964596,0.856,-0.1047,0.4293,10.8032,3.1128,12.8174
964616,0.8857,-0.0792,0.3773,9.5215,4.0283,14.3433
964636,0.7557,-0.0752,0.3346,8.4839,2.9297,15.686
964656,0.726,-0.0861,0.3104,4.5166,5.7373,15.2588
964676,0.7406,-0.1006,0.2817,1.4038,7.6294,14.2212
964700,0.795,-0.104,0.2495,0.6104,-3.479,9.8267
964720,0.7578,-0.0868,0.2369,1.5869,-9.3994,11.5356
964740,0.7596,-0.0823,0.2467,-1.8921,-4.5776,9.8267
964760,0.7336,-0.085,0.2527,-2.3804,-9.3384,7.6904
964780,0.7632,-0.0906,0.2302,-3.418,-7.2632,7.3242
964800,0.7622,-0.1002,0.2548,-4.4556,-10.1318,0.7935
964821,0.7231,-0.0941,0.2755,-5.4321,-6.8359,-1.77
964841,0.7164,-0.0895,0.2942,-6.3477,-1.1597,-2.1362
964861,0.8181,-0.0576,0.3043,-5.6763,-0.061,-2.7466
964882,0.9001,-0.0112,0.2886,-3.418,0.1831,-2.6855
964902,0.9366,-0.0454,0.3048,-0.3052,-6.5308,2.6245
964922,0.9825,-0.066,0.297,-3.54,-6.1646,5.7983
964942,1.0398,-0.0768,0.314,-6.958,-3.7842,8.5449
964962,1.0635,-0.1039,0.3,-12.4512,-4.8828,8.728
964984,1.0566,-0.1135,0.3711,-18.9209,6.7749,10.498
965004,1.3451,0.0031,0.3114,-20.2026,11.3525,10.498
965024,1.2683,0.0543,0.4744,-11.3525,-5.6152,9.6436
965044,1.1196,0.0798,0.5662,-10.1318,-7.8125,6.6528
965064,1.114,0.1693,0.6427,-8.2397,-8.1177,4.8218
965084,0.9529,0.2144,0.6514,-5.188,-12.5732,5.4932
965104,0.8413,0.1108,0.6143,-9.0332,-2.9297,5.3101
965128,0.8973,0.0521,0.5889,-20.6909,7.6294,-0.1831
965149,0.9115,0.0537,0.5542,-24.7192,3.3569,-4.8828
965169,0.8656,0.0905,0.5197,-23.7427,0.2441,-14.2212
965189,0.9261,0.1196,0.4575,-22.3999,5.188,-14.5874
965212,0.8993,0.1249,0.3989,-19.7144,1.6479,-17.5171
965232,0.7826,0.1302,0.3665,-20.874,0.7324,-18.1885
965252,0.7582,0.1333,0.3586,-18.1274,4.0894,-18.3716
965272,0.7236,0.1116,0.3181,-15.1367,1.1597,-17.9443
965292,0.7399,0.1133,0.2941,-12.7563,2.9297,-17.1509
965312,0.7084,0.1039,0.2574,-6.1035,-3.0518,-15.0757
965334,0.6893,0.1135,0.2546,-2.5635,-4.5776,-12.7563
965354,0.6704,0.1123,0.2341,-1.0376,-13.5498,-8.0566
965374,0.6969,0.0767,0.2468,-0.5493,-14.0381,-4.3335
965394,0.7177,0.0635,0.2714,-2.0142,-12.146,-1.8921
965414,0.7467,0.0613,0.292,0.061,-13.7939,-0.6714
965434,0.7743,0.0555,0.3099,0.2441,-16.5405,0.3662
965454,0.8346,0.0638,0.354,-0.5493,-17.8833,-0.3052
965474,0.8457,0.0908,0.3737,1.0376,-18.2495,-1.5259
965495,0.9042,0.1079,0.3646,4.7607,-15.0757,-4.7607
965515,0.9532,0.1188,0.3829,3.9062,-4.3945,-9.3384
965535,1.0428,0.0663,0.3971,1.5869,2.5024,-9.2163
965555,1.0728,0.0673,0.3861,0.9155,7.3853,-12.207
965575,1.0564,0.0963,0.495,6.4697,7.3242,-17.9443
965595,1.2776,0.1022,0.4513,10.498,8.9111,-15.1367
965615,1.1445,0.0208,0.5919,13.3057,1.3428,-12.8174
965637,1.15,-0.0731,0.6707,13.3057,2.9907,-8.4229
965657,1.0868,-0.1779,0.7124,11.7188,-2.5635,-6.4697
965677,0.9685,-0.2319,0.6887,8.3618,7.4463,-5.9814
965697,0.8632,-0.1705,0.6888,13.855,-2.2583,-8.667
965721,0.8959,-0.0747,0.6311,22.1558,10.437,2.6245
965741,0.8513,-0.0627,0.5814,30.7007,7.8735,12.7563
965761,0.7961,-0.0793,0.5345,30.1514,12.3901,17.5781
965781,0.8573,-0.0814,0.4486,27.8931,14.7095,21.1182
965801,0.8185,-0.0946,0.3512,25.6958,9.7046,21.1182
965821,0.7356,-0.1078,0.3491,26.6113,5.9204,23.6816
965841,0.7349,-0.1343,0.3186,19.043,10.376,20.0806
965861,0.752,-0.1442,0.2914,16.2354,10.9253,21.6064
965881,0.7777,-0.1504,0.2606,8.606,10.6201,19.2261
965901,0.751,-0.1454,0.2644,4.3335,1.8311,17.395
965925,0.7654,-0.1219,0.2603,1.3428,-6.1646,18.3716
965945,0.7421,-0.1066,0.2551,-4.2725,-15.1367,12.8174
965965,0.7224,-0.1151,0.2419,-5.7373,-17.8223,10.8643
965985,0.7092,-0.1031,0.2805,-7.8735,-13.1226,10.3149
966005,0.7247,-0.1031,0.3043,-7.5684,-21.1792,5.4932
966025,0.7196,-0.0862,0.3525,-10.0708,-15.625,3.3569
966045,0.7881,-0.0621,0.3455,-11.4136,-5.9204,2.8076
966068,0.8595,-0.0212,0.3508,-8.2397,-2.8076,3.7231
966088,0.8949,-0.058,0.3527,-11.1694,-0.9766,4.8218
966108,0.9821,-0.0828,0.3586,-16.4185,1.8921,5.6763
966128,1.0178,-0.066,0.3469,-21.6064,3.9673,5.8594
966148,1.0243,-0.0601,0.4049,-26.3062,4.6387,6.2256
966171,1.2039,-0.0389,0.4911,-29.1748,14.4653,6.4697
966194,1.2246,0.0726,0.5417,-22.583,8.0566,6.4087
966214,1.1641,0.1172,0.6876,-15.9912,-4.8218,4.7607
966234,1.1902,0.1772,0.6749,-13.6108,-4.0894,4.9438
966254,1.0034,0.1903,0.6826,-13.5498,-14.3433,3.2349
966274,0.7975,0.15,0.6786,-17.334,-4.6387,4.1504
966294,0.7571,0.125,0.6414,-32.1655,23.1323,2.9297
966314,0.8059,0.1017,0.5618,-35.1562,19.2871,-1.5259
966334,0.8575,0.0831,0.526,-32.959,7.8125,-14.9536
966354,0.8491,0.1094,0.4941,-28.8086,3.2349,-21.5454
966374,0.8308,0.1245,0.4104,-25.8179,7.2632,-24.4141
966397,0.844,0.1599,0.3665,-21.2402,7.3853,-23.2544
966417,0.782,0.1827,0.3384,-19.4702,7.019,-23.6206
966437,0.803,0.1749,0.3263,-19.2261,9.8877,-21.4233
966457,0.8011,0.1484,0.3096,-17.7612,7.1411,-19.165
966477,0.7844,0.1305,0.3113,-15.1367,-0.6714,-17.5781
966497,0.7654,0.1207,0.2983,-9.2163,-4.2114,-16.5405
966517,0.7196,0.1111,0.2893,-5.9204,-0.7324,-14.5874
966537,0.7142,0.1119,0.2733,-4.3335,0.1221,-14.7705
966557,0.71,0.1176,0.267,-2.6855,-0.6714,-13.6108
966577,0.7321,0.1139,0.2688,-0.2441,1.3428,-10.6812
966597,0.7784,0.118,0.2534,0.3662,-0.061,-8.7891
966617,0.7665,0.09,0.2727,2.2583,-3.3569,-7.6294
966637,0.771,0.0782,0.2753,4.8218,-3.8452,-6.5918
966657,0.8538,0.0814,0.2773,6.1646,-4.0894,-5.0049
966679,0.9258,0.0919,0.3204,8.0566,-5.0049,-3.54
966699,0.9869,0.0886,0.2952,12.0239,-14.2212,-4.2114
966721,1.0344,0.0656,0.2938,10.9253,-11.4136,-5.127
966742,1.0682,0.0668,0.3496,11.1694,-2.5635,-4.6387
966762,1.057,0.0837,0.3727,14.5874,-3.0518,-8.667
966782,1.2028,0.0935,0.3838,16.6016,1.4648,-6.5308
966802,1.0847,0.0326,0.5421,17.1509,3.1128,-6.1035
966822,1.09,-0.0702,0.6017,17.4561,6.958,-5.6152
966842,1.1179,-0.1821,0.6582,14.0991,8.3618,-5.4321
966862,1.028,-0.2565,0.6282,7.019,8.3008,-7.5684
966882,0.9023,-0.2397,0.6292,2.6855,11.2915,-13.2446
966902,0.9149,-0.1125,0.6013,9.4604,9.7656,-9.0942
966922,0.9724,-0.0701,0.5708,15.0757,19.2871,-4.5166
966942,0.9476,-0.0863,0.5082,19.5923,5.5542,6.1035
966962,0.896,-0.118,0.4949,17.9443,6.2866,11.4746
966982,0.8933,-0.1133,0.4332,15.3809,4.5776,14.4653
967002,0.8895,-0.0957,0.382,10.6201,5.0659,12.4512
967023,0.8193,-0.1102,0.3579,10.376,0.061,13.6719
967043,0.7792,-0.1444,0.3102,8.3618,-0.2441,10.9253
967063,0.743,-0.1432,0.2939,5.5542,16.8457,21.4233
967083,0.7738,-0.1147,0.2511,-0.3662,7.5073,15.8691
967103,0.728,-0.0782,0.2445,2.7466,-6.1646,15.686
967123,0.7543,-0.0576,0.2489,-1.1597,-4.6997,12.146
967143,0.7167,-0.0764,0.231,-1.1597,-11.1694,14.1602
967163,0.7457,-0.0668,0.2339,-0.1831,-12.4512,15.9302
967183,0.7582,-0.0829,0.2517,0.4272,-21.5454,10.9253
967204,0.7638,-0.087,0.2502,-1.4648,-18.7988,10.7422
967224,0.7565,-0.1123,0.2869,-4.4556,-18.1885,6.6528
967244,0.7744,-0.0869,0.3051,-6.958,-12.3291,5.5542
967265,0.8373,-0.0508,0.3184,-7.3242,-3.1738,5.4321
967285,0.9231,-0.0374,0.3313,-6.0425,-4.5776,7.5073
967306,0.9956,-0.0596,0.3251,-7.4463,-3.0518,8.3008
967326,1.0518,-0.0321,0.3113,-12.5122,-2.0752,9.8267
967346,1.0293,-0.0204,0.3048,-15.2588,-5.4321,8.667
967369,1.066,-0.0425,0.3733,-18.2495,-5.4932,7.7515
967389,1.2394,-0.0105,0.3809,-20.6909,-1.5869,7.9346
967411,1.1187,0.0408,0.4789,-17.1509,-2.9907,9.4604
967431,1.0262,0.0403,0.5607,-17.2119,-5.6763,6.1035
967452,1.1433,0.1604,0.624,-12.207,-2.3804,6.7139
967473,0.9576,0.2067,0.6506,-6.2866,-14.5874,5.4321
967493,0.7822,0.1313,0.657,-6.4697,-5.9814,4.6997
967513,0.7872,0.0858,0.634,-13.5498,1.0986,1.9531
967536,0.8583,0.035,0.5991,-23.8037,5.8594,-5.7983
967556,0.8702,0.0615,0.5743,-27.2827,5.5542,-12.207
967576,0.8431,0.1051,0.5172,-25.3296,6.1646,-16.4795
967596,0.8716,0.1407,0.4845,-20.813,13.3667,-15.8081
967617,0.8782,0.1708,0.4246,-19.3481,13.7329,-15.4419
967637,0.8297,0.1614,0.3625,-18.4326,13.916,-15.1367
967657,0.8102,0.1613,0.3406,-19.165,14.9536,-14.2822
967677,0.814,0.1399,0.3051,-15.1367,13.0005,-10.437
967697,0.8141,0.1106,0.2893,-12.146,8.0566,-10.437
967721,0.7441,0.11,0.2773,-5.4321,-4.1504,-15.9302
967742,0.6962,0.1115,0.2848,0.3662,-7.8125,-17.0898
967762,0.7218,0.113,0.2734,1.8311,-5.7983,-14.1602
967782,0.7191,0.0974,0.2617,4.0894,-10.8643,-10.5591
967802,0.7223,0.0908,0.2852,2.0752,-10.7422,-7.1411
967822,0.7361,0.0956,0.2789,2.8076,-7.8735,-2.1362
967843,0.785,0.0747,0.3075,4.0894,-8.728,-0.4883
967863,0.8442,0.0768,0.3147,5.249,-7.6294,-0.1221
967883,0.8684,0.0793,0.3131,5.6763,-6.1646,-2.0142
967903,0.9272,0.1077,0.3452,7.6904,-3.9062,-2.4414
967923,0.9716,0.1365,0.3655,10.8032,-1.8921,-3.1128
967943,1.0485,0.1125,0.3276,13.916,-2.0752,-3.1738
967963,0.99,0.0764,0.3516,15.4419,-1.2817,-5.3711
967983,1.0154,0.09,0.4617,20.813,6.7749,-7.3242
968003,1.2043,0.0834,0.3395,24.1089,0.5493,-5.7373
968023,0.9943,0.0165,0.5286,25.3906,-4.0283,-7.6294
968043,1.0664,-0.0216,0.5944,23.7427,4.2725,-7.2632
968063,1.0594,-0.1614,0.6403,20.0806,-2.0142,-5.9204
968083,1.0067,-0.2417,0.6383,13.7329,1.9531,-7.2021
968104,0.8801,-0.2328,0.6708,13.916,-3.3569,-8.4229
968124,0.9327,-0.1655,0.6112,17.8833,5.8594,-2.5635
968144,0.9058,-0.1265,0.5828,22.7661,5.6152,2.7466
968164,0.868,-0.1224,0.5502,24.7803,8.728,11.0474
968184,0.8457,-0.1099,0.5151,24.5972,7.8735,13.916
968207,0.9231,-0.0713,0.4418,25.8789,11.7188,16.9067
968227,0.8635,-0.066,0.3726,28.2593,8.4839,18.3105
968247,0.7506,-0.079,0.3667,26.062,15.8081,23.4375
968267,0.7614,-0.082,0.3251,24.0479,19.4092,25.5127
968287,0.7395,-0.1318,0.2903,22.3389,12.8174,25.9399
968307,0.7703,-0.1379,0.2759,20.0806,13.916,25.3906
968327,0.7445,-0.106,0.2515,17.0898,8.3618,24.7803
968347,0.7739,-0.0609,0.2438,16.7236,2.0142,26.001
968369,0.7412,-0.0668,0.2355,18.4937,-4.0283,23.4985
968389,0.7404,-0.0913,0.2155,16.4795,-7.6294,21.1182
968409,0.7445,-0.1016,0.2349,15.3809,-7.3853,20.0195
968429,0.7903,-0.1703,0.2031,10.9253,-2.6245,16.8457
968450,0.8224,-0.2062,0.2231,5.8594,-4.5166,13.9771
968471,0.8999,-0.1587,0.2721,-7.0801,-1.5259,7.4463
968491,0.9391,-0.1061,0.2931,-4.4556,2.8076,6.4697
968514,0.9965,-0.1256,0.2854,-2.5024,-0.8545,8.606
968534,1.0604,-0.1001,0.2781,-10.2539,-0.061,10.8643
968554,1.1182,-0.0574,0.2561,-13.1226,-4.5776,11.5356
968574,1.0859,-0.0452,0.2888,-15.4419,-10.1929,11.1694
968595,1.173,-0.0131,0.3873,-16.7847,-7.8735,10.498
968619,1.1986,0.0187,0.3583,-13.9771,-1.4648,9.8267
968639,1.015,0.0259,0.5634,-15.564,-3.54,7.6294
968660,1.049,0.061,0.595,-15.1978,0,3.479
968680,0.9967,0.139,0.6216,-10.0708,1.1597,3.418
968700,0.8596,0.1458,0.6459,-8.4839,3.418,3.6621
968721,0.8531,0.1317,0.5985,-12.3901,13.0005,3.7231
968741,0.84,0.0845,0.594,-19.7144,13.916,2.3804
968761,0.8386,0.0551,0.5609,-25.8179,8.4229,-5.0659
968781,0.8176,0.0829,0.528,-26.9775,6.7749,-11.9019
968805,0.8445,0.1417,0.4822,-21.5454,7.019,-18.2495
968825,0.8674,0.1678,0.4374,-18.0054,11.1694,-17.8223
968845,0.8497,0.1693,0.3835,-16.9067,12.8784,-13.1836
968865,0.8495,0.1373,0.3464,-15.1367,14.5264,-14.8315
968885,0.8425,0.142,0.3066,-12.3901,10.2539,-13.7329
968908,0.8732,0.1318,0.2582,-10.0098,12.5122,-9.3384
968928,0.88,0.1238,0.2439,-2.8687,2.9297,-9.6436
968952,0.8163,0.0974,0.2292,1.6479,-2.9907,-9.5215
968972,0.7943,0.0962,0.2091,4.6997,-4.3945,-9.1553
968992,0.8008,0.0979,0.2014,7.3853,-9.6436,-8.1787
969012,0.781,0.0917,0.2013,10.1929,-14.8315,-6.2256
969032,0.7839,0.094,0.2218,10.6812,-15.0757,-3.7842
969052,0.8256,0.0931,0.2153,10.5591,-15.686,-2.1973
969072,0.8647,0.0702,0.2374,10.3149,-16.1743,-0.4272
969092,0.8336,0.0647,0.2678,11.5356,-17.8833,0.3662
969132,0.822,0.0575,0.3273,15.1367,-12.7563,0.4883
969175,0.9691,0.0756,0.3207,20.3247,-3.479,0.2441
969215,0.9778,0.0939,0.4012,24.4141,-0.2441,-2.4414
969260,1.1305,0.0142,0.4518,36.438,1.1597,2.6855
969280,1.1118,-0.0403,0.5664,36.0107,5.0049,-0.7324
969302,1.2334,-0.1654,0.6232,34.0576,-1.4648,-1.8311
969323,1.0236,-0.2554,0.6412,26.8555,-4.5166,-6.1035
969343,0.9182,-0.2252,0.6449,26.3062,-2.9907,-10.2539
969363,0.8921,-0.1592,0.5907,35.2173,0.7935,-6.5308
969383,0.9088,-0.1111,0.5457,40.6494,1.8921,-0.1831
969404,0.7219,-0.1041,0.5184,46.7529,26.6724,12.7563
969424,0.8368,-0.1344,0.4799,43.8843,8.4229,19.043
969444,0.8575,-0.1293,0.4406,43.0298,8.3618,25.6958
969464,0.8778,-0.1265,0.3704,44.4336,7.6904,26.9165
969485,0.804,-0.1488,0.3429,43.457,2.0142,26.8555
969505,0.7723,-0.161,0.3071,37.7197,3.8452,27.6489
969525,0.7302,-0.1851,0.3138,33.5693,9.9487,29.7241
969545,0.8049,-0.2013,0.2814,26.062,17.5781,28.8696
969565,0.7706,-0.1963,0.2701,26.6113,-2.9907,24.4141
969585,0.8312,-0.1448,0.25,21.5454,-4.2114,23.8037
969605,0.7944,-0.1631,0.2468,19.9585,-13.9771,22.3389
969625,0.7761,-0.1499,0.2437,14.4653,-6.897,20.5078
969645,0.7557,-0.1705,0.2546,6.897,-6.0425,15.564
969665,0.7838,-0.1682,0.2681,3.479,-7.5073,12.0239
969685,0.8262,-0.1815,0.2621,1.2817,-3.54,11.5967
969705,0.8408,-0.1713,0.2749,0.2441,-5.188,13.3667
969725,0.9026,-0.145,0.2609,-1.4038,-3.2959,12.6343
969745,0.9244,-0.1356,0.2693,-3.1128,-1.77,13.2446
969765,0.9493,-0.1302,0.2844,-3.54,-1.9531,15.0757
969785,1.0449,-0.1096,0.2935,-6.3477,-2.0142,16.1133
969808,1.0587,-0.0717,0.2834,-10.0708,-5.9814,19.4092
969828,1.0239,-0.0424,0.2892,-14.1602,-10.0708,20.6299
969848,1.0934,-0.0305,0.3518,-13.7939,-12.8784,19.8364
969908,1.0773,0.1302,0.5872,-2.4414,-18.2495,20.0806
969948,0.8751,0.1704,0.6647,4.8218,-11.8408,15.9302
969988,0.7568,0.0836,0.5786,-3.6011,17.334,10.3149
970008,0.7563,0.0861,0.5972,-8.5449,15.7471,5.0049
970028,0.7938,0.0953,0.5757,-8.728,5.0659,-3.3569
970050,0.77,0.1093,0.5526,-7.1411,4.5776,-9.3384
970070,0.8085,0.135,0.5129,-5.249,11.5356,-10.437
970090,0.8322,0.166,0.5007,1.2817,11.6577,-9.5215
970110,0.8427,0.209,0.4557,4.4556,11.7798,-6.1035
970130,0.863,0.2026,0.4365,5.0659,12.5122,-6.2866
970150,0.8419,0.1753,0.4062,8.5449,13.9771,-4.8218
970170,0.8405,0.1504,0.3834,10.8643,13.6719,-2.8076
970191,0.8236,0.1251,0.3599,17.2729,7.5684,-2.3193
970211,0.8219,0.1198,0.3346,21.2402,4.7607,-1.709
970231,0.8257,0.1089,0.3193,23.4375,3.2959,0.3662
970251,0.797,0.0801,0.2971,25.5737,1.9531,1.4648
970271,0.7894,0.0851,0.2914,27.2827,0.4272,1.5259
970291,0.8025,0.0774,0.2775,28.7476,0.6104,2.4414
970311,0.8254,0.079,0.2863,29.2358,0.8545,4.2725
970331,0.8394,0.0852,0.2972,30.0293,0.061,5.4932
970351,0.8304,0.0723,0.3076,31.7993,-2.4414,6.7749
970391,0.7947,0.0337,0.3259,31.6772,0.061,5.8594
970434,0.8755,0.0731,0.3307,31.0669,8.4229,3.1738
970454,0.9586,0.068,0.3206,31.6772,9.3384,4.4556
970474,0.9912,0.0354,0.299,29.6631,7.019,5.188
970494,0.9469,0.0382,0.2996,29.7241,7.0801,3.6011
970514,1.0228,0.0895,0.3228,33.6304,11.2305,2.8687
970534,1.0724,0.0962,0.3171,37.0483,12.085,4.6997
970554,1.0863,0.0386,0.3685,39.0015,13.6719,7.019
970578,1.1357,-0.0162,0.4358,39.856,11.3525,7.6904
970598,1.2235,-0.0894,0.4432,34.1187,9.9487,8.4229
970619,1.1257,-0.1903,0.4614,30.3955,8.0566,5.5542
970639,1.035,-0.1276,0.4683,32.7759,7.8125,-0.061
970659,1.0131,-0.1016,0.4618,42.6636,8.606,0.7935
970679,0.9884,-0.0443,0.4697,50.6592,9.4604,7.7515
970699,0.9642,-0.0179,0.4438,58.5327,3.7231,14.3433
970719,0.8864,-0.0289,0.4153,63.9038,1.2817,20.874
970739,0.8328,-0.0459,0.391,66.7725,1.5869,27.5879
970760,0.8433,-0.0587,0.3662,68.4814,2.5635,30.3955
970780,0.8667,-0.0945,0.3281,69.8242,4.5166,32.7759
970801,0.8357,-0.1243,0.3049,70.9839,1.2207,35.0952
970824,0.8096,-0.1548,0.2931,70.3735,4.0283,34.1187
970844,0.7924,-0.1648,0.2747,71.8994,1.5869,33.7524
970864,0.8063,-0.176,0.2765,70.8618,3.54,33.02
970884,0.8231,-0.1836,0.2738,68.4814,0.3052,31.189
970904,0.8481,-0.1899,0.2623,66.1621,-2.9297,30.3955
970924,0.8291,-0.2046,0.266,62.5,-6.1035,31.1279
970944,0.8428,-0.2054,0.2578,59.3872,-6.897,31.25
970967,0.866,-0.2211,0.2649,52.7954,-7.6904,31.0669
970987,0.8739,-0.2267,0.2875,48.5229,-8.4839,28.5645
971007,0.8428,-0.2037,0.3081,44.3115,-5.5542,27.832
971028,0.8441,-0.1442,0.3027,44.1284,-5.4321,28.6865
971048,0.89,-0.1324,0.2822,43.457,-2.4414,29.9683
971068,0.9138,-0.1337,0.2739,40.5273,1.2207,30.0293
971090,0.9939,-0.1316,0.2717,37.5977,2.5024,29.0527
971110,1.0353,-0.1376,0.2644,34.2407,-4.0894,27.832
971130,1.0588,-0.1324,0.2788,29.1138,-7.2021,27.0386
971152,1.075,-0.127,0.2297,20.0195,-10.2539,26.9775
971172,0.9576,-0.1882,0.2676,2.6855,-8.1177,28.0151
971192,1.0024,-0.2733,0.2628,-8.7891,-2.6855,28.8696
971212,1.1027,-0.2285,0.2529,-15.1978,-1.2207,28.5034
971232,1.0771,-0.1278,0.3213,-13.6719,-9.3384,24.7192
971252,0.9812,-0.0347,0.4124,-9.1553,-11.4746,23.3765
971272,1.0361,0.1064,0.4766,-2.0142,-13.1836,27.0996
971292,1.0568,0.1729,0.5632,5.8594,-20.3247,29.48
971312,0.8826,0.2056,0.5923,11.1084,-20.2637,30.8228
971332,0.7582,0.2148,0.6102,7.9346,-9.0942,28.3203
971352,0.6937,0.2219,0.6132,7.0801,-0.1831,25.2686
971372,0.7085,0.2019,0.5863,3.6011,8.2397,21.2402
971392,0.7224,0.1981,0.606,3.9673,8.667,18.6768
971412,0.7524,0.2279,0.5634,10.7422,5.9814,8.1787
971434,0.7623,0.2574,0.5494,17.8223,5.249,4.2725
971454,0.7979,0.3127,0.5004,30.8838,6.7749,4.5166
971474,0.8395,0.3126,0.4761,37.4756,16.2964,8.5449
971494,0.8849,0.2749,0.4435,40.4663,21.4233,8.728
971514,0.8782,0.215,0.408,43.8843,16.3574,8.728
971535,0.87,0.2026,0.4004,49.8657,15.3809,8.9722
971555,0.8301,0.1958,0.3901,54.8096,13.6719,10.0098
971575,0.8058,0.1769,0.3667,59.4482,10.9253,11.5356
971595,0.8287,0.1479,0.3337,63.9648,13.6719,12.8174
971615,0.864,0.1235,0.3167,67.4438,11.9019,15.0146
971635,0.8959,0.1234,0.3143,68.7256,9.9487,16.2354
971655,0.9366,0.1016,0.2894,73.0591,5.8594,19.8975
971675,0.9116,0.0902,0.3037,74.8291,0.9155,21.9116
971695,0.9056,0.0895,0.3103,75.8057,-1.6479,23.5596
971715,0.9158,0.0668,0.323,76.2939,-2.9907,24.9634
971735,0.8982,0.0411,0.3239,75.0732,-6.7749,24.4751
971755,0.8528,0.043,0.3381,74.585,-5.4321,24.9023
971775,0.8312,0.0297,0.3235,74.4019,-2.0752,25.3906
971795,0.8303,0.0321,0.3215,74.4019,0.3052,24.353
971819,0.8458,0.0356,0.3029,74.707,6.7749,23.7427
971839,0.8523,0.0393,0.303,76.2939,8.606,24.1089
971861,0.8635,0.0522,0.3098,77.9419,10.8032,25.2686
971881,0.8699,0.0627,0.2943,78.186,11.4136,26.9775
971901,0.8643,0.0522,0.2869,77.1484,11.5356,26.8555
971923,0.8881,0.0557,0.2734,76.2939,13.9771,24.5972
971943,0.8932,0.0547,0.2588,76.5381,15.0757,23.4375
971963,0.9346,0.058,0.2858,78.0029,16.4185,21.5454
971983,1.0339,0.045,0.3009,78.7964,17.8833,22.1558
972003,1.0619,0.0166,0.2806,79.834,16.6626,23.0103
972023,1.2014,0.0115,0.4148,78.186,17.9443,23.4375
972043,1.3468,-0.0366,0.403,76.9653,8.1177,24.4141
972063,1.2504,-0.1409,0.4399,75.5005,0,22.3999
972083,1.0319,-0.1724,0.4657,78.9795,-5.188,13.916
972103,0.9585,-0.1208,0.4399,86.3037,13.6108,12.8174
972125,0.8718,-0.1139,0.4478,93.2617,5.9814,15.0146
972145,0.8911,-0.0883,0.3833,94.6045,14.5874,22.1558
972165,0.944,-0.1207,0.3402,93.9941,13.6108,28.1982
972185,0.8492,-0.1608,0.3351,91.1865,-2.3804,32.4707
972208,0.8485,-0.1991,0.3093,86.5479,2.7466,37.5366
972229,0.9095,-0.2133,0.2822,81.7871,-0.4272,40.6494
972249,0.9248,-0.2258,0.2668,79.7729,-3.6011,40.9546
972269,0.8475,-0.2333,0.2623,74.4019,0.9766,42.3584
972290,0.8267,-0.2334,0.2744,71.4722,0.6714,37.6587
972310,0.8302,-0.21,0.2672,71.8994,-2.1973,33.8135
972332,0.8226,-0.2128,0.2705,69.0308,-6.5308,33.4473
972352,0.7987,-0.2095,0.2703,65.3076,-3.1738,34.4849
972372,0.8334,-0.2094,0.2693,57.5562,-1.9531,32.4097
972392,0.8568,-0.218,0.2633,52.9175,-5.4932,31.5552
972412,0.8843,-0.2231,0.2609,47.9736,-4.9438,30.8228
972432,0.8596,-0.2211,0.2578,42.1753,-4.2114,28.0762
972452,0.8395,-0.2098,0.2699,39.3066,-5.7373,26.5503
972472,0.8337,-0.2057,0.2705,33.9966,-5.4932,25.8179
972492,0.8848,-0.1818,0.2627,30.3955,-5.3101,25.3906
972512,0.8713,-0.1638,0.2711,27.0386,-6.2256,25.2686
972532,0.912,-0.1033,0.2853,21.9727,-3.3569,24.5361
972552,0.9865,-0.0573,0.2751,20.5078,-1.0986,24.4141
972572,1.0328,-0.0201,0.2688,19.5312,-2.3193,26.3062
972592,1.061,-0.0387,0.2778,17.8833,-4.7607,28.0151
972612,1.0942,-0.0865,0.2777,10.6201,-4.2114,28.9917
972675,1.0292,-0.0105,0.4817,-1.4648,-10.6201,17.8223
972715,1.0186,0.1194,0.6675,5.4932,-2.5024,12.8174
972735,0.9135,0.1401,0.673,9.7656,-2.8076,9.9487
972755,0.7695,0.1228,0.6185,10.9863,9.3994,7.019
972775,0.8018,0.1205,0.5636,4.5776,17.5171,6.6528
972795,0.8373,0.0802,0.5635,-1.8311,20.6299,5.127
972815,0.8367,0.0649,0.481,-3.2959,15.4419,-0.7324
972835,0.7972,0.0938,0.4763,-1.77,13.0005,-6.2866
972855,0.7841,0.1276,0.46,2.1362,11.3525,-10.3149
972875,0.7916,0.1528,0.4058,8.4229,11.9629,-10.1318
972895,0.8195,0.1643,0.3721,11.4746,12.6953,-8.8501
972915,0.8374,0.1603,0.337,12.7563,17.5781,-6.1646
972935,0.8486,0.1104,0.3103,14.5264,13.5498,-4.7607
972955,0.877,0.0936,0.2964,15.686,12.6953,-4.2725
972975,0.8723,0.0829,0.2704,18.0054,6.3477,-0.8545
972995,0.8555,0.0692,0.2529,20.874,3.54,0.1831
973015,0.8278,0.0557,0.2435,23.1323,-1.3428,-0.7935
973035,0.8179,0.0515,0.246,22.8271,-4.2725,3.3569
973055,0.8038,0.0586,0.243,23.9258,-7.0801,3.6011
973075,0.801,0.0713,0.2476,23.4375,-3.9062,4.2725
973095,0.8262,0.0638,0.2592,23.0103,-4.0283,6.7749
973116,0.8276,0.0552,0.2509,23.1934,-4.7607,7.4463
973139,0.8392,0.0597,0.3074,24.1089,-4.0283,4.9438
973160,0.8348,0.0645,0.2719,25.3296,-2.6855,3.2349
973180,0.8124,0.0588,0.2931,23.9868,0.1221,0.6714
973200,0.932,0.0658,0.2964,23.0103,1.77,-0.3662
973220,1.0475,0.0613,0.2538,20.5078,0.1221,-0.1221
973241,1.0183,0.0276,0.2722,18.7988,-1.8921,-0.9766
973283,1.0276,0.1044,0.342,22.0947,0.6714,-5.8594
973303,1.1462,0.1223,0.3267,25.7568,5.4932,-5.188
973323,1.1866,0.078,0.2798,27.832,3.1128,-2.7466
973343,1.0719,0.0096,0.4132,27.6489,0.9766,-1.9531
973363,1.2198,-0.0406,0.4427,25.1465,-6.1646,-0.1221
973404,0.8821,-0.2395,0.5454,20.9961,-20.6299,-2.5024
973424,0.8738,-0.1635,0.5798,24.4141,-12.146,-2.4414
973444,0.9406,-0.1062,0.5736,31.9824,-12.207,5.7373
973464,0.8912,-0.0935,0.5537,36.8652,-18.0664,11.2305
973484,0.8439,-0.0945,0.5232,37.2925,-17.395,15.625
973505,0.8638,-0.0892,0.4888,38.147,-11.5967,22.0337
973525,0.9519,-0.1125,0.4265,34.6069,-6.7749,21.4233
973546,0.9092,-0.1272,0.3607,32.2876,-10.9253,20.874
973566,0.8235,-0.1366,0.3442,28.5645,-8.4839,20.1416
973586,0.7535,-0.178,0.311,25.5127,-10.498,17.8833
973606,0.7395,-0.1864,0.3022,21.6064,-11.2305,17.2729
973630,0.7637,-0.1663,0.2756,19.165,-17.2729,17.7002
973650,0.7804,-0.1511,0.3586,13.2446,-26.2451,17.8223
973670,0.7051,-0.1288,0.3785,11.2915,-36.9873,19.4092
973694,0.7642,-0.1302,0.3699,10.8643,-36.9263,19.2261
973714,0.7466,-0.1156,0.3938,6.7749,-36.9263,15.1978
973734,0.7137,-0.1095,0.4275,2.7466,-32.2266,12.8784
973758,0.7443,-0.1129,0.412,-3.8452,-19.5923,10.376
973778,0.7759,-0.1165,0.4191,-6.2866,-0.6714,7.2021
973798,0.7958,-0.0956,0.3947,-6.958,-12.085,7.0801
973819,0.7751,-0.0663,0.3995,-8.4839,-8.3008,7.5073
973839,0.8583,-0.0424,0.3879,-9.2773,-5.3711,7.8125
973859,0.975,-0.0042,0.3265,-11.7188,-8.9111,8.1177
973881,0.9424,0.0562,0.3323,-13.5498,-15.686,8.728
973902,1.0031,0.0245,0.4453,-14.3433,-23.4985,9.5825
973922,1.2047,0.0421,0.4357,-12.8784,-24.353,11.4746
973945,1.0193,0.0992,0.6143,-8.1787,-40.7715,10.5591
973965,1.0087,0.1252,0.714,-0.7324,-46.3867,10.7422
973985,0.9751,0.1785,0.8257,4.6387,-50.7202,10.6201
974005,0.7592,0.2123,0.8937,12.9395,-64.3921,8.1787
974025,0.491,0.1349,0.9292,13.2446,-67.1997,4.8218
974045,0.4032,0.0928,0.9379,6.7749,-53.6499,1.4038
974065,0.4612,0.0814,0.9934,-3.6621,-19.5312,-3.3569
974086,0.6017,0.069,0.8932,-5.9814,-7.6294,-7.7515
974106,0.6549,0.0922,0.9045,-3.3569,-7.019,-11.9629
974126,0.7563,0.0936,0.8462,-2.9907,-4.6997,-12.6953
974146,0.7152,0.0703,0.843,-5.127,-6.1035,-14.2212
974166,0.6564,0.0302,0.8077,-9.4604,-2.3193,-15.3198
974189,0.6624,0.0267,0.793,-11.7188,1.5869,-16.6626
974209,0.6708,0.0419,0.7491,-11.5967,8.606,-16.7847
974229,0.6414,0.0527,0.6877,-9.7046,8.9111,-16.1743
974272,0.5891,0.054,0.5636,-7.4463,17.334,-14.8315
974292,0.5773,0.0662,0.532,-6.5308,18.3105,-14.4043
974312,0.5974,0.0903,0.5129,-6.2866,21.8506,-13.5498
974332,0.6123,0.0929,0.4996,-6.2866,23.6206,-11.5356
974355,0.6219,0.0791,0.4894,-5.127,20.3247,-8.0566
974375,0.6193,0.0757,0.4923,-4.0283,16.5405,-7.2632
974395,0.6356,0.0637,0.5275,-1.8921,14.7705,-5.4932
974415,0.647,0.0725,0.5247,-0.4883,18.6157,-4.0283
974457,0.71,0.1022,0.5009,2.1973,27.9541,-2.2583
974477,0.7568,0.0889,0.4879,0.9766,32.4707,-2.2583
974497,0.8077,0.0994,0.4685,-0.7935,36.6821,-4.6387
974519,0.8812,0.1421,0.4972,2.9907,34.9731,-6.1646
974539,1.1293,0.1566,0.5302,9.3994,29.9072,-6.7139
974562,1.1536,0.0272,0.5867,10.0708,19.043,-5.4321
974582,1.1338,-0.0626,0.7341,5.9814,11.7798,-7.8735
974604,1.0631,-0.1895,0.8062,-5.9204,16.1133,-7.5073
974624,0.9302,-0.2266,0.8181,-6.4087,20.2637,-12.3291
974644,0.8165,-0.1721,0.8303,3.418,25.6348,-13.9771
974664,0.8884,-0.0625,0.743,12.3901,38.0859,-8.9111
974684,0.8894,-0.0364,0.6864,21.4233,41.748,-2.5635
974704,0.9071,-0.0637,0.542,21.8506,35.8887,2.1973
974724,0.9136,-0.1071,0.5455,19.6533,29.0527,8.4839
974744,0.9465,-0.1051,0.4875,18.3105,10.6201,17.9443
974764,0.7683,-0.0887,0.442,20.5688,-0.5493,21.1792
974784,0.6868,-0.0743,0.4399,20.874,8.606,22.0947
974804,0.6573,-0.0657,0.3964,22.7661,12.2681,21.4233
974824,0.6578,-0.0968,0.3564,23.6206,16.4795,21.5454
974844,0.6476,-0.1211,0.3182,21.4233,15.9302,20.4468
974865,0.6284,-0.1083,0.2786,18.7378,13.2446,19.5923
974885,0.6938,-0.0901,0.2743,16.7847,10.7422,18.9209
974905,0.7677,-0.1019,0.2754,12.5732,6.8359,14.1602
974928,0.8125,-0.1331,0.2773,8.9722,2.1973,11.1694
974948,0.801,-0.1851,0.2404,5.3101,-12.8174,9.3994
974968,0.7686,-0.1338,0.3358,-1.4038,-14.0991,6.0425
974988,0.7365,-0.0841,0.3738,-2.0142,-6.2256,4.3335
975010,0.8307,-0.0773,0.3647,-1.2207,-0.2441,4.5776
975034,0.928,-0.0463,0.3567,-2.1362,8.0566,4.0894
975074,0.9711,-0.0537,0.3726,-7.9956,5.9814,9.7656
975094,0.9697,-0.0487,0.3971,-9.8267,2.9907,12.6953
975114,1.0187,-0.067,0.4451,-14.8926,8.667,16.5405
975134,1.1493,-0.0978,0.5024,-17.395,10.3149,18.1885
975154,1.2717,-0.0077,0.3993,-15.1367,-2.4414,14.7705
975174,1.1011,0.088,0.6282,-15.5029,-13.916,10.1929
975194,1.113,0.1534,0.6414,-11.0474,-8.9111,6.7749
975216,0.9713,0.2574,0.7015,-8.1177,-12.7563,2.9297
975236,0.8236,0.2195,0.7375,-7.5684,-10.437,1.0376
975256,0.726,0.1259,0.6823,-13.6719,1.0986,-1.8921
975276,0.777,0.0984,0.6323,-18.1274,12.6343,-11.8408
975296,0.785,0.1266,0.64,-14.2212,11.0474,-18.1885
975316,0.8147,0.2239,0.5492,-3.9673,12.3291,-22.8271
975340,0.8062,0.2025,0.5056,-0.1221,17.395,-22.522
975360,0.8654,0.1545,0.4532,-0.061,29.9683,-20.9961
975380,0.8671,0.1035,0.3981,1.77,27.2827,-16.1133
975400,0.8177,0.1044,0.3632,3.9673,21.7896,-14.5874
975422,0.7964,0.0714,0.3185,5.188,15.3198,-9.8877
975442,0.7805,0.0447,0.301,4.9438,15.2588,-7.8125
975462,0.7518,0.0226,0.28,5.4932,9.2163,-7.2632
975482,0.7109,0.0201,0.2593,7.2021,7.1411,-6.897
975502,0.724,0.0415,0.243,9.0332,4.8828,-6.8359
975522,0.7496,0.0469,0.2289,8.728,-0.9766,-3.479
975545,0.8271,0.0511,0.2405,7.3242,-8.1177,-2.0142
975565,0.7745,0.0586,0.2515,7.2632,-20.2637,-1.6479
975585,0.7432,0.0643,0.2966,9.9487,-13.7329,-2.7466
975605,0.7894,0.1019,0.3186,9.5825,-5.5542,-2.5024
975645,0.8788,0.0802,0.3323,12.085,-0.6104,-2.3804
975665,1.0106,0.1,0.3168,14.4653,-0.7324,-3.2349
975685,0.9976,0.0784,0.3192,16.7236,-1.0376,-5.0659
975706,1.0132,0.0282,0.3134,17.2119,-0.9766,-5.0659
975726,1.0487,0.0548,0.4185,20.9961,4.2114,-6.5918
975746,1.2722,0.0967,0.4211,23.3154,3.6621,-3.1128
975766,1.1746,-0.0194,0.4548,22.2778,-5.5542,-2.1362
975786,1.0725,-0.0637,0.5973,19.8364,-4.9438,-3.6011
975806,1.2067,-0.1393,0.5916,18.0664,-6.4087,-1.2817
975826,1.0405,-0.2201,0.6124,14.5874,-5.6152,-1.4648
975846,0.8937,-0.2308,0.6211,13.1836,-0.6714,-2.4414
975866,0.8571,-0.145,0.582,15.3809,6.4087,-2.3804
975886,0.8555,-0.1167,0.5552,21.6675,0.6104,4.3335
975906,0.8643,-0.1185,0.5331,24.1699,-4.6997,9.0332
975927,0.8214,-0.1434,0.469,22.4609,-10.437,11.7188
975947,0.8188,-0.1564,0.4568,16.7236,-8.4839,16.2354
975967,0.8665,-0.1504,0.3754,13.3667,-8.606,16.7847
975989,0.8428,-0.1453,0.3564,10.498,-18.7988,17.395
976009,0.8062,-0.1583,0.332,3.9673,-10.9253,16.7236
976029,0.7733,-0.1661,0.3333,-0.8545,-13.2446,14.0991
976049,0.7314,-0.1724,0.3539,-5.188,-16.6016,10.6812
976072,0.7144,-0.1555,0.3627,-5.0049,-21.3623,9.5215
976092,0.7169,-0.0881,0.3647,-5.9204,-16.9067,8.5449
976112,0.7075,-0.0654,0.3767,-5.127,-18.1274,5.127
976132,0.6836,-0.0808,0.3705,-4.8828,-17.6392,4.0894
976153,0.7297,-0.0875,0.356,-7.8735,-11.9629,2.1362
976173,0.7539,-0.0854,0.3586,-10.8032,-8.9722,0.1831
976193,0.7922,-0.0813,0.3591,-13.1836,-7.2021,-1.0986
976213,0.7849,-0.0913,0.3646,-14.4653,-8.4229,-0.9766
976233,0.7804,-0.072,0.3839,-14.0991,-2.2583,-0.9155
976253,0.7797,-0.057,0.4015,-13.7329,1.4648,0.4272
976273,0.8684,-0.0728,0.4052,-14.0381,3.9062,2.4414
976293,0.9735,-0.0591,0.3928,-18.8599,4.3945,5.7373
976313,0.9955,-0.0184,0.3796,-20.5688,1.0986,6.4697
976337,1.0006,-0.0381,0.4717,-21.5454,-2.9297,9.0332
976357,1.2611,-0.0077,0.4698,-23.8647,-0.5493,12.207
976377,1.0267,0.0468,0.6395,-22.583,-4.3335,9.6436
976397,1.0906,0.1531,0.7502,-17.0898,-5.9814,9.5825
976417,1.061,0.2361,0.7736,-9.8877,-6.1035,9.3994
976437,0.8864,0.2521,0.7893,-2.8687,-13.7939,8.2397
976457,0.7762,0.2233,0.7886,0.4272,0.4272,9.0332
976481,0.7198,0.1664,0.7852,-8.3008,12.7563,5.9814
976505,0.8243,0.1068,0.6609,-12.8784,12.8784,-2.8076
976525,0.8445,0.0929,0.6096,-12.085,6.3477,-11.5356
976545,0.8425,0.0431,0.5447,-14.5874,5.7373,-12.4512
976565,0.8162,0.0428,0.4935,-17.8833,12.3291,-13.7329
976586,0.819,0.0776,0.4263,-20.9351,16.7236,-16.4185
976606,0.7839,0.1024,0.4037,-19.7144,9.2773,-21.5454
976626,0.7834,0.1171,0.3843,-18.1274,8.0566,-22.8271
976646,0.7621,0.1294,0.3501,-16.3574,8.4839,-21.3013
976667,0.7058,0.1219,0.3196,-12.8174,6.8359,-17.6392
976688,0.6708,0.1052,0.3059,-9.7656,2.2583,-16.4795
976708,0.6749,0.1053,0.291,-7.5073,1.5869,-16.3574
976730,0.6927,0.1256,0.2924,-6.4087,-0.9766,-14.3433
976750,0.6875,0.1095,0.2997,-6.0425,0.1221,-10.9863
976770,0.7559,0.0892,0.313,-4.6387,-10.1318,-10.437
976790,0.7137,0.0894,0.3336,-3.1128,-6.1646,-11.3525
976810,0.783,0.0981,0.3585,-0.9766,-2.6855,-8.9111
976830,0.814,0.0911,0.3601,0,-3.479,-7.9346
976850,0.7856,0.1027,0.3768,2.3804,-1.6479,-9.7656
976874,0.8733,0.1257,0.3634,4.0283,1.2207,-9.5215
976934,1.1316,0.1006,0.4496,12.085,-8.3008,-13.4888
976954,1.2919,0.0367,0.4761,7.3242,-2.6245,-11.4136
976974,1.2173,-0.054,0.7185,7.5073,-1.8921,-13.5498
976994,1.2604,-0.119,0.7482,7.0801,-4.5776,-12.4512
977018,1.0447,-0.1893,0.718,4.6387,-7.1411,-12.146
977038,0.8445,-0.1804,0.7256,6.4697,-5.7983,-15.1978
977058,0.7422,-0.1533,0.7281,11.3525,7.019,-10.437
977078,0.7697,-0.1228,0.6814,21.6675,5.4932,-2.9297
977098,0.786,-0.1229,0.6244,25.1465,12.085,3.7231
977121,0.7915,-0.1403,0.5671,26.1841,11.9629,13.0615
977141,0.8157,-0.1436,0.5251,26.062,6.7749,16.9678
977161,0.7891,-0.1217,0.4764,24.4141,7.5073,20.6909
977182,0.7183,-0.123,0.4739,26.7334,4.5166,24.4751
977202,0.7,-0.1322,0.4169,22.2168,12.7563,25.3906
977222,0.7343,-0.1522,0.3923,21.0571,5.3711,23.4375
977242,0.7369,-0.1738,0.3558,19.4092,3.1128,22.644
977262,0.7253,-0.1696,0.334,16.6016,-1.6479,19.7754
977282,0.731,-0.1516,0.313,13.4277,1.1597,16.1743
977302,0.7249,-0.1451,0.2864,8.9111,-2.1362,14.8926
977323,0.741,-0.1357,0.2876,6.4087,-3.9062,12.3901
977343,0.7411,-0.1528,0.2751,1.3428,-4.8218,10.498
977363,0.7556,-0.1783,0.3009,-3.7842,-3.3569,10.5591
977383,0.7791,-0.163,0.3098,-6.7139,-0.1831,8.5449
977403,0.8025,-0.1094,0.3311,-7.9956,0.1831,5.188
977423,0.8228,-0.0757,0.3314,-6.4087,-1.3428,6.2866
977443,0.8053,-0.0706,0.3297,-6.4697,-2.6855,7.6294
977466,0.8849,-0.0958,0.3545,-7.8735,-2.6855,7.9956
977486,0.988,-0.0828,0.3241,-10.1318,-1.4648,11.9019
977506,1.0599,-0.0281,0.3296,-10.7422,-1.2207,14.2212
977526,1.066,-0.0229,0.328,-9.5825,-7.0801,15.7471
977546,1.1155,-0.0834,0.4473,-14.7095,-3.2959,16.5405
977566,1.2643,-0.0317,0.3969,-17.4561,1.2817,16.9678
977586,1.1278,0.054,0.5258,-13.5498,-5.7983,13.3667
977626,1.0538,0.1248,0.6591,-12.146,-2.4414,11.1084
977646,0.8821,0.2242,0.7114,-5.0049,-4.7607,8.3618
977686,0.7936,0.1597,0.7318,-13.2446,-3.1738,1.77
977710,0.7751,0.1333,0.6873,-31.25,-1.709,-6.897
977734,0.8076,0.1241,0.6345,-15.3198,6.6528,-10.2539
977754,0.8781,0.1238,0.5417,-10.437,5.4932,-12.6343
977774,0.8494,0.1428,0.5001,-5.7983,6.8359,-14.7095
977794,0.8063,0.1282,0.4584,-5.249,6.1646,-15.5029
977814,0.7565,0.0896,0.4451,-2.6855,-4.5776,-15.3809
977834,0.7375,0.0732,0.4275,-0.9155,-2.5024,-14.2212
977856,0.7244,0.0715,0.4019,-0.3662,0.6714,-11.1084
977876,0.6887,0.0609,0.3557,1.2817,0.4883,-9.4604
977897,0.681,0.0746,0.3123,4.0894,-1.0376,-10.0098
977917,0.6902,0.082,0.3076,6.1035,-1.5869,-9.8267
977940,0.7098,0.0616,0.3094,6.3477,0.9155,-7.5073
977960,0.7832,0.0858,0.3036,7.6904,4.1504,-5.249
977983,0.795,0.1001,0.3304,11.3525,-9.3994,-3.9673
978003,0.7792,0.0914,0.3757,15.625,-7.5073,-4.3335
978023,0.7832,0.0951,0.3949,16.2964,-3.6621,-3.8452
978044,0.7805,0.083,0.4006,17.5781,-1.5259,-3.54
978064,0.8352,0.0669,0.4182,18.4937,3.0518,-3.9673
978084,0.8976,0.0626,0.4236,20.874,2.6855,-5.7373
978104,0.9882,0.0386,0.3965,20.1416,2.9907,-9.7046
978124,0.9758,0.0518,0.3997,21.4844,3.1738,-16.1133
978144,1.043,0.0757,0.4832,22.9492,5.0049,-17.395
978164,1.2637,0.0262,0.3439,23.9258,12.146,-15.4419
978187,1.1565,-0.0665,0.5566,19.5312,9.9487,-17.0898
978211,1.2286,-0.17,0.6157,16.3574,1.8921,-12.8784
978231,1.0485,-0.3175,0.6648,8.9722,-3.7231,-10.0708
978251,0.8634,-0.3536,0.7013,9.8877,-10.1929,-6.958
978271,0.7958,-0.3049,0.736,14.3433,-5.5542,-1.709
978291,0.8158,-0.2288,0.644,17.9443,-0.2441,3.9673
978312,0.7861,-0.202,0.6049,22.7661,4.4556,13.3057
978332,0.7327,-0.1777,0.5706,20.9351,12.3291,16.4185
978352,0.7698,-0.1609,0.5,18.4326,18.8599,18.1274
978372,0.7939,-0.1522,0.4374,14.0381,23.7427,20.4468
978392,0.7694,-0.1527,0.402,12.085,20.3247,21.3623
978412,0.7524,-0.1547,0.3752,9.8267,17.334,20.4468
978432,0.7616,-0.1501,0.3428,7.2632,13.2446,20.6909
978452,0.7737,-0.1564,0.3162,6.2256,2.7466,19.6533
978474,0.7562,-0.1512,0.2992,5.0659,-1.0986,20.0195
978536,0.7798,-0.1116,0.2596,-2.0142,-6.8359,10.8643
978582,0.7812,-0.1117,0.2885,-7.0801,-9.7656,7.2021
978602,0.782,-0.1056,0.324,-9.2163,-11.5356,6.958
978622,0.7987,-0.0996,0.3372,-10.8032,-9.3384,5.6152
978642,0.8218,-0.0781,0.3468,-10.8643,-5.4321,5.5542
978662,0.8538,-0.0706,0.3646,-9.9487,-3.1128,6.0425
978702,1.0367,-0.0791,0.3367,-13.855,-7.6294,10.2539
978723,1.0657,-0.08,0.324,-19.2871,-5.249,10.6201
978743,1.0922,-0.0873,0.3857,-24.231,-4.4556,12.3291
978763,1.2266,-0.061,0.4196,-27.4658,-4.6997,13.916
978783,1.093,0.043,0.5311,-24.6582,-7.6294,12.7563
978803,1.0476,0.064,0.6587,-25.1465,-11.3525,10.3149
978824,0.9762,0.1427,0.6892,-19.7754,-9.9487,7.8125
978844,0.8313,0.1724,0.7148,-15.3809,-7.4463,3.7842
978864,0.811,0.1787,0.7314,-20.3247,1.8921,-0.3052
978884,0.8516,0.1649,0.7439,-28.1982,4.4556,-3.0518
978904,0.8328,0.1095,0.6632,-34.3628,1.0986,-10.2539
978924,0.8224,0.1321,0.6487,-33.2031,1.77,-15.0757
978944,0.8412,0.152,0.5884,-29.1748,5.6152,-16.2354
978964,0.8352,0.149,0.546,-24.353,10.376,-19.5923
978988,0.838,0.147,0.4664,-22.2168,12.8174,-22.2778
979008,0.7526,0.1296,0.413,-20.4468,13.4888,-22.8882
979030,0.7401,0.1184,0.3956,-20.6299,0.061,-19.2261
979050,0.7501,0.1139,0.355,-19.6533,15.1367,-16.0522
979070,0.7396,0.113,0.3331,-17.4561,13.0615,-15.686
979090,0.7102,0.123,0.3064,-11.4746,5.9814,-16.1743
979110,0.674,0.1216,0.2865,-8.4839,4.6387,-14.4653
979133,0.705,0.1062,0.2709,-5.7983,4.2725,-12.9395
979153,0.7092,0.0886,0.2644,-4.9438,2.8076,-11.4136
979173,0.718,0.0945,0.266,-2.9907,0.7324,-9.0332
979193,0.7589,0.0985,0.2852,-2.1362,1.77,-8.2397
979213,0.8346,0.1123,0.3263,2.3193,0.3052,-5.249
979233,0.8872,0.1144,0.3367,5.3711,-1.1597,-3.479
979253,0.8994,0.1135,0.3429,7.9346,-4.7607,-2.6855
979273,0.8762,0.124,0.361,11.2305,-2.1973,-1.5259
979293,1.0056,0.1115,0.3563,11.8408,-0.6714,-2.4414
979313,1.061,0.094,0.3354,11.6577,-1.2817,-2.8687
979333,1.0474,0.0963,0.371,14.3433,-1.4648,-8.728
979353,1.1747,0.1072,0.3933,19.4092,1.1597,-11.1694
979373,1.2524,0.0585,0.2943,19.8364,6.4087,-10.8032
979393,1.1232,-0.0179,0.5396,17.2729,5.3711,-12.4512
979413,1.1844,-0.0474,0.5753,18.0054,-1.0986,-10.8643
979433,1.1283,-0.1586,0.6444,14.4653,-9.2773,-2.0142
979453,0.8835,-0.2767,0.6591,10.0098,-5.8594,-0.5493
979475,0.8611,-0.1792,0.6469,12.4512,0.9155,-0.6714
979495,0.8424,-0.0991,0.6093,23.0713,7.0801,8.4839
979515,0.8795,-0.0967,0.5771,27.9541,8.3008,14.7705
979535,0.801,-0.1006,0.5219,29.0527,8.5449,16.9067
979555,0.8433,-0.1079,0.4401,25.5127,16.4795,20.752
979575,0.8394,-0.0968,0.3795,24.6582,18.6157,21.8506
979596,0.7986,-0.0714,0.3619,21.6064,25.5737,21.5454
979616,0.7974,-0.072,0.3171,19.2871,24.5361,21.3623
979636,0.7838,-0.0928,0.2762,19.2261,16.2354,22.8271
979656,0.7841,-0.13,0.2538,16.6016,8.667,22.4609
979676,0.7689,-0.1166,0.2371,15.9912,2.9907,20.9961
979696,0.7783,-0.1116,0.2188,14.2822,-1.0986,16.1743
979716,0.7938,-0.1024,0.2179,8.4229,-1.4648,11.8408
979736,0.8027,-0.0997,0.1945,7.8735,-7.3242,8.2397
979756,0.7844,-0.099,0.2233,6.5308,-6.1035,6.4697
979779,0.7605,-0.1313,0.2352,1.5869,-7.5684,3.1738
979799,0.7683,-0.1309,0.2444,-1.8921,-6.958,3.2349
979823,0.8402,-0.0986,0.2781,-4.3335,-4.2725,2.3193
979843,0.8936,-0.0676,0.2966,-1.0376,-5.249,2.6245
979863,0.9139,-0.0564,0.3115,-0.5493,-8.1787,4.3945
979883,0.9547,-0.0876,0.3132,-4.4556,-8.0566,6.2866
979906,1.0477,-0.0955,0.2997,-6.897,-8.606,9.1553
979927,1.0453,-0.1248,0.2914,-12.0239,-6.4697,13.2446
979947,1.0906,-0.145,0.3503,-21.0571,-4.0283,15.7471
979967,1.2836,-0.085,0.3427,-20.6909,-3.2959,15.9912
979987,1.0995,0.0691,0.5126,-16.1133,-14.5264,15.0146
980007,1.0808,0.0929,0.647,-15.7471,-12.2681,13.4888
980027,1.0309,0.1691,0.6755,-11.2305,-10.1318,11.9629
980047,0.8993,0.2266,0.7208,-5.8594,-8.5449,7.5684
980067,0.8225,0.2378,0.678,-7.5684,-1.709,5.3101
980088,0.7864,0.1785,0.6718,-14.0381,6.2866,4.3945
980112,0.8652,0.0879,0.5583,-19.6533,17.334,-1.5869
980132,0.8521,0.0924,0.5349,-16.2354,17.8833,-10.437
980152,0.8705,0.1162,0.4716,-12.5122,18.0664,-14.4043
980172,0.8772,0.1393,0.4177,-9.4604,16.7847,-18.0054
980192,0.866,0.1453,0.3674,-7.6294,18.1885,-21.1182
980212,0.8068,0.1218,0.3269,-6.1035,19.5923,-20.6299
980232,0.8075,0.1061,0.3062,-6.7139,19.7144,-16.5405
980252,0.8242,0.1129,0.2684,-4.3945,11.9019,-11.9019
980273,0.8218,0.0968,0.2433,-1.9531,7.6294,-7.9956
980293,0.8051,0.0709,0.2288,1.2207,-1.0986,-6.1646
980313,0.7471,0.0424,0.2072,2.1973,-6.8359,-6.8359
980333,0.7218,0.0411,0.2094,2.0752,-7.2632,-7.4463
980353,0.7233,0.038,0.2008,1.5869,-5.6152,-9.0332
980373,0.7456,0.0571,0.2081,1.0986,-4.5776,-6.5918
980393,0.7661,0.0439,0.2173,2.1362,-7.2632,-5.9204
980413,0.8351,0.0544,0.2139,2.8076,-8.4229,-3.7231
980433,0.8823,0.0582,0.2461,3.54,-10.437,-3.6011
980453,0.9281,0.0569,0.2578,5.0659,-11.4136,-2.9907
980473,0.9337,0.0521,0.2955,3.3569,-9.6436,-3.3569
980493,1.0343,0.0703,0.3022,4.8828,-9.5215,-4.6387
980513,1.0886,0.0724,0.2944,5.4321,-12.6343,-5.4321
980533,1.0789,0.0685,0.2939,5.5542,-14.4653,-7.5073
980556,1.0717,0.1033,0.3751,11.4746,-13.1836,-10.498
980576,1.2372,0.1003,0.3643,17.6392,-6.3477,-10.6812
980596,1.0688,-0.0132,0.515,18.0054,-7.8735,-10.437
980616,1.0505,-0.0474,0.6069,19.8975,-11.5967,-13.6108
980636,1.0601,-0.1075,0.6799,17.9443,-7.7515,-8.5449
980656,0.9254,-0.245,0.7059,13.1226,-3.418,-4.9438
980676,0.9066,-0.2399,0.7301,13.0615,0.2441,-2.8687
980696,0.9272,-0.1229,0.6613,20.5078,-2.1362,-0.6104
980716,0.8912,-0.0854,0.5952,26.8555,-3.6011,2.8076
980736,0.8542,-0.0815,0.5464,30.6396,6.4087,8.4839
980756,0.8331,-0.082,0.5076,30.0903,11.4746,12.4512
980776,0.8358,-0.0891,0.4204,29.541,14.3433,14.4043
980796,0.7738,-0.0959,0.377,27.832,15.8691,15.4419
980816,0.707,-0.0992,0.3379,24.292,21.5454,17.395
980836,0.7601,-0.1335,0.2854,20.5078,30.5176,23.5596
980856,0.7739,-0.1411,0.2544,20.6909,18.9209,25.7568
980876,0.769,-0.1544,0.2361,20.3247,7.019,24.7192
980897,0.7474,-0.1577,0.2336,17.395,-0.1221,24.8413
980917,0.7538,-0.1671,0.2238,15.0757,-8.667,20.6299
980937,0.7468,-0.1503,0.233,11.6577,-11.7188,18.6768
980957,0.7203,-0.1421,0.2268,7.8735,-5.6152,15.0146
980977,0.7512,-0.1532,0.2422,3.0518,-7.0801,11.7188
980997,0.7512,-0.1687,0.2765,-2.2583,-7.0801,6.6528
981017,0.8124,-0.1484,0.3048,-3.9673,-1.4038,4.5166
981037,0.8511,-0.1239,0.2991,-2.8687,2.3193,4.6997
981061,0.9187,-0.0804,0.3022,-0.3662,-0.9766,6.4697
981081,1.0166,-0.1074,0.292,-2.6245,-3.0518,9.0332
981101,1.0525,-0.1044,0.2853,-8.606,-1.9531,12.6953
981121,1.0536,-0.106,0.316,-11.5967,-5.0659,13.7329
981141,1.1829,-0.0928,0.413,-15.2588,-2.1973,15.564
981161,1.403,0.0043,0.3505,-13.3057,0.3662,18.1274
981181,1.1022,0.1349,0.6328,-4.3945,-11.1694,13.9771
981202,1.1647,0.1355,0.6735,-4.3945,-8.8501,12.8784
981222,0.9746,0.2281,0.6924,-1.6479,-10.9253,8.9722
981243,0.8427,0.2104,0.7213,-1.2817,-12.6343,8.4229
981264,0.8466,0.1414,0.6183,-14.4653,5.127,8.4229
981284,0.8752,0.1082,0.595,-22.2168,19.6533,2.9297
981304,0.9048,0.1042,0.5192,-21.5454,20.2637,-3.7842
981324,0.9155,0.1399,0.4543,-13.3667,12.2681,-14.2212
981346,0.9263,0.155,0.3885,-8.4229,4.5776,-18.9209
981366,0.8871,0.1647,0.3486,-6.6528,5.0049,-21.9727
981386,0.7772,0.1156,0.3279,-3.7842,1.0376,-25.0854
981406,0.7279,0.0984,0.3115,-6.4697,7.019,-21.9727
981426,0.7325,0.0952,0.2949,-10.6201,12.5122,-18.6157
981446,0.7549,0.0985,0.2844,-10.498,9.7656,-14.7095
981466,0.766,0.0731,0.2528,-8.7891,3.3569,-14.4653
981486,0.7529,0.0708,0.2474,-7.2021,-2.8076,-15.2588
981506,0.7213,0.0503,0.2399,-6.2866,-6.958,-15.4419
981526,0.722,0.0751,0.2385,-6.5308,-11.1084,-13.3057
981546,0.7283,0.0765,0.2664,-3.7842,-9.7046,-12.3901
981566,0.7716,0.0916,0.2701,-3.1738,-8.1177,-10.1929
981586,0.7635,0.0985,0.2838,-3.3569,-6.5918,-6.5308
981606,0.7982,0.0935,0.2894,-2.5024,-1.0376,-4.8828
981630,0.8386,0.0803,0.2865,-1.0986,4.5776,-3.479
981651,0.9222,0.063,0.2781,-0.1221,4.8218,-3.6621
981671,0.9816,0.0669,0.2874,1.6479,-0.3052,-5.3711
981691,1.1202,0.0437,0.2493,0.5493,-2.8687,-6.4697
981711,1.1538,0.012,0.264,-1.5869,-8.8501,-10.5591
981731,1.0881,0.0582,0.3312,0.4272,-13.3667,-15.9302
981751,1.2166,0.093,0.3525,4.6387,-8.728,-15.7471
981772,1.2485,0.0258,0.4169,2.5635,-7.6294,-10.8643
981792,1.0431,-0.0303,0.5433,2.0142,-5.249,-11.9019
981812,1.1595,-0.036,0.5665,2.8687,-11.4136,-6.6528
981833,1.0098,-0.1895,0.6541,-0.6104,-13.4277,-3.54
981853,0.8954,-0.2212,0.6807,-0.9766,-10.3149,-5.0659
981873,0.8983,-0.1425,0.6698,1.5259,-8.606,-4.1504
981893,0.9082,-0.12,0.6534,6.7139,-14.4653,-1.5869
981913,0.9275,-0.1251,0.5979,4.8218,-12.4512,3.2959
981933,0.8214,-0.11,0.5642,3.1738,-7.9346,8.9111
981953,0.8424,-0.0957,0.5333,3.6621,-6.897,6.1035
981973,0.8069,-0.0785,0.5173,6.1646,-5.4321,8.1177
981993,0.7582,-0.0469,0.4823,5.188,6.1646,9.7046
982015,0.7223,-0.0511,0.4198,5.0049,11.0474,9.2773
982035,0.7236,-0.071,0.3859,3.7231,12.207,9.8877
982055,0.7341,-0.0984,0.3564,1.1597,15.625,10.8643
982075,0.7668,-0.0992,0.311,-2.9297,15.625,11.1084
982095,0.7374,-0.0834,0.2852,-0.7935,2.5635,11.8408
982115,0.7087,-0.0916,0.2792,-1.9531,5.4932,10.498
982135,0.7462,-0.093,0.2388,-1.709,6.1646,8.667
982155,0.743,-0.0957,0.2421,-4.3335,3.1128,6.2256
982175,0.7079,-0.0975,0.2683,-6.4087,3.8452,4.4556
982195,0.7479,-0.0764,0.2616,-4.9438,0.9766,3.9673
982215,0.8064,-0.0989,0.2745,-5.4321,-2.0752,3.479
982235,0.853,-0.1064,0.3119,-4.3335,-0.7935,4.0283
982255,0.8706,-0.0966,0.3126,-3.9062,-1.8921,5.127
982275,0.9229,-0.0945,0.3284,-5.9814,0.061,6.1646
982295,0.9899,-0.0824,0.3179,-8.3618,1.3428,9.5825
982318,1.0699,-0.0786,0.2943,-10.437,0.3662,12.4512
982338,1.0936,-0.0895,0.3217,-14.2822,-1.5259,15.0146
982360,1.2465,-0.0414,0.4022,-16.7847,3.418,17.1509
982384,1.1437,0.0856,0.5648,-10.1929,-1.0986,16.2964
982404,1.1067,0.1051,0.6614,-7.3853,-9.3384,15.5029
982424,1.0576,0.2131,0.6873,-3.2349,-5.4932,16.9067
982444,0.8806,0.2172,0.7208,0.7324,-10.0098,18.0054
982464,0.8278,0.1875,0.6857,-6.2866,-1.6479,17.2119
982484,0.8417,0.0955,0.6562,-16.2964,11.6577,11.6577
982504,0.8397,0.067,0.5793,-22.4609,12.207,0.8545
982524,0.856,0.0758,0.5498,-21.6675,16.5405,-7.8735
982544,0.8812,0.1339,0.4828,-15.7471,20.3857,-15.564
982564,0.8751,0.1547,0.3934,-12.3291,19.9585,-19.8975
982584,0.8279,0.1697,0.3484,-10.0098,20.5078,-24.4141
982604,0.7709,0.1534,0.3121,-6.0425,16.4795,-26.123
982624,0.7689,0.1406,0.2731,-6.2256,17.8223,-20.9351
982645,0.7745,0.1248,0.2567,-7.1411,18.9209,-17.2119
982665,0.7563,0.0996,0.2357,-6.5308,8.728,-12.6343
982686,0.705,0.0731,0.229,-3.7842,1.8311,-12.9395
982706,0.6931,0.0699,0.2211,0.9155,-1.8921,-13.5498
982726,0.7131,0.0947,0.2091,2.5024,-3.54,-11.5967
982746,0.7213,0.0907,0.2166,3.2349,-5.4932,-8.9722
982766,0.7783,0.0929,0.2092,4.5776,-5.9204,-6.4697
982787,0.8492,0.0747,0.2261,4.3335,-7.3242,-5.249
982808,0.8514,0.0736,0.2402,7.4463,-8.7891,-5.9814
982828,0.911,0.0833,0.2502,7.2021,-7.3242,-6.2256
982848,0.9504,0.0734,0.3038,7.8735,-5.6152,-5.0659
982868,1.0021,0.0703,0.2721,7.9346,-5.0049,-5.127
982890,1.0483,0.0614,0.295,9.5215,-8.7891,-7.4463
982911,1.087,0.0393,0.2837,6.958,-7.6294,-9.8877
982935,1.0524,0.0554,0.3738,8.8501,-2.5024,-15.564
982955,1.1971,0.0582,0.3768,12.207,-0.7935,-18.3105
982975,1.285,-0.0114,0.3774,6.0425,1.77,-15.564
982995,1.0496,-0.0696,0.6066,6.7749,0.3662,-16.9678
983015,1.1495,-0.1752,0.647,3.54,1.5869,-12.5732
983035,1.0042,-0.2507,0.6697,-0.7935,-0.8545,-9.5215
983055,0.8613,-0.2457,0.6987,-0.1831,1.1597,-9.9487
983075,0.8672,-0.1566,0.6207,7.9346,6.2256,-7.3242
983095,0.9144,-0.0754,0.5577,19.5312,12.085,-2.7466
983115,0.8971,-0.0641,0.4849,23.5596,10.9253,3.0518
983137,0.8451,-0.1293,0.4393,22.2778,10.0708,11.1084
983157,0.874,-0.1477,0.384,15.1367,18.3105,14.5874
983178,0.8472,-0.0844,0.3173,13.916,12.6343,17.7612
983198,0.77,-0.0813,0.2932,14.4653,7.019,17.7002
983218,0.733,-0.1002,0.2638,12.4512,17.9443,20.9961
983240,0.7921,-0.1218,0.2271,9.4604,16.6016,21.6064
983260,0.7751,-0.1392,0.2108,9.3994,4.3335,19.9585
983280,0.7881,-0.1566,0.2059,5.7373,-0.8545,16.9678
983304,0.7388,-0.1003,0.1908,7.3242,-10.6201,17.5171
983324,0.7521,-0.1046,0.1736,6.7749,-17.334,17.395
983344,0.7306,-0.0923,0.2164,5.5542,-15.3809,10.9863
983364,0.7319,-0.1013,0.2261,2.1973,-14.4043,10.5591
983386,0.7671,-0.1132,0.2529,1.3428,-18.4326,11.5967
983406,0.8076,-0.1112,0.2609,0.6104,-12.2681,11.1084
983426,0.8795,-0.1058,0.2797,-15.1978,-6.4697,11.3525
983446,0.9534,-0.0624,0.2817,-0.4883,-2.9297,10.0708
983466,0.9873,-0.0385,0.296,-1.0376,-1.2207,9.6436
983488,1.1097,-0.0328,0.2672,-3.1128,-4.1504,12.0239
983508,1.1315,-0.0452,0.259,-5.7983,-8.1787,14.4043
983528,1.1128,-0.0962,0.3329,-14.7095,-1.4648,17.2119
983548,1.2844,-0.0748,0.3329,-19.2871,4.7607,16.2964
983568,1.3098,0.014,0.396,-14.0991,-7.2021,12.8784
983588,0.9875,-0.0038,0.5999,-16.5405,-7.6904,8.2397
983612,1.005,0.1293,0.6791,-16.6016,-2.9907,6.2256
983632,0.8796,0.2064,0.7205,-10.498,-2.8076,4.7607
983652,0.8535,0.1898,0.6602,-13.4277,0.2441,5.0659
983672,0.8823,0.1482,0.6443,-23.9258,10.1318,1.0986
983693,0.942,0.0833,0.5552,-29.2969,11.9019,-4.0283
983713,0.9756,0.1252,0.5083,-28.6255,8.667,-10.8032
983733,0.9501,0.145,0.474,-24.5972,2.1973,-15.2588
983754,0.8917,0.1294,0.3917,-21.4233,1.77,-20.2637
983774,0.8054,0.1128,0.3522,-17.5171,4.0283,-23.9258
983794,0.7494,0.0989,0.3225,-15.625,7.0801,-22.0947
983814,0.7239,0.109,0.2744,-13.9771,11.2915,-19.165
983834,0.7747,0.1213,0.24,-10.9863,5.5542,-16.2354
983856,0.7401,0.1084,0.2111,-6.897,-2.3804,-15.2588
983876,0.7059,0.101,0.2135,-3.479,-8.4839,-14.5264
983896,0.6676,0.0769,0.209,-1.5869,-13.3667,-13.855
983916,0.646,0.0605,0.2167,-1.3428,-14.8926,-13.855
983936,0.6757,0.0626,0.2308,-2.1362,-13.3057,-11.2305
983958,0.7355,0.0563,0.2609,-2.5024,-11.2915,-9.9487
983979,0.7743,0.0844,0.2882,-1.4038,-12.085,-7.2021
983999,0.8375,0.0703,0.3187,-0.1831,-13.4277,-5.249
984019,0.9155,0.0887,0.3324,-0.4883,-5.249,-2.8687
984039,0.9624,0.1088,0.3293,1.5259,-1.5259,-3.8452
984059,1.0657,0.1058,0.321,4.3945,-0.7324,-5.3711
984080,1.1251,0.0942,0.314,4.9438,-0.6714,-6.2866
984100,1.1143,0.1038,0.3901,8.3008,-0.9155,-11.3525
984122,1.2864,0.0975,0.4113,13.855,-1.2817,-11.7798
984143,1.3572,0.0306,0.3955,11.4136,-2.0142,-8.606
984163,1.0648,-0.0695,0.6232,9.2163,-8.8501,-11.2915
984183,1.1495,-0.1377,0.6514,7.6904,-9.5825,-10.437
984203,1.051,-0.2231,0.6823,3.1128,-10.3149,-8.7891
984223,0.8171,-0.2227,0.6899,1.709,-1.5259,-9.9487
984247,0.8718,-0.1155,0.6299,12.6343,0.5493,-6.8359
984267,0.9183,-0.0862,0.5752,21.9727,1.709,2.0142
984287,0.863,-0.0948,0.5356,23.9258,3.9673,9.8267
984307,0.8789,-0.1162,0.4803,23.7427,3.9673,16.1133
984327,0.866,-0.0933,0.3932,22.583,0.1221,18.6157
984347,0.8075,-0.0919,0.3722,21.9116,-5.0049,20.4468
984367,0.7484,-0.0969,0.3545,19.165,-2.1973,22.644
984387,0.7257,-0.1147,0.3289,14.8315,3.479,23.1323
984407,0.7136,-0.1577,0.317,11.5967,-1.9531,22.3389
984427,0.7102,-0.1647,0.3036,10.2539,-7.1411,19.7144
984447,0.6576,-0.1542,0.3135,8.0566,-6.1035,17.8223
984467,0.6663,-0.1173,0.3213,5.8594,-2.5024,15.686
984488,0.6899,-0.0911,0.3062,5.7983,-6.6528,13.1836
984508,0.7192,-0.0996,0.2954,2.1362,-3.7231,12.0239
984532,0.7626,-0.1323,0.2866,-3.7231,-0.6104,8.3618
984552,0.8009,-0.0991,0.3224,-10.1929,1.6479,4.6387
984572,0.8193,-0.1248,0.3135,-9.5825,0.3052,3.6011
984592,0.8505,-0.0728,0.3151,-8.3618,-0.2441,3.8452
984612,0.8596,-0.0498,0.3287,-5.127,2.9297,4.2114
984632,0.9803,-0.0511,0.3151,-5.7983,4.2725,5.8594
984654,1.0568,-0.0421,0.3158,-10.6812,6.4087,10.8032
984674,1.0323,-0.0668,0.339,-15.1367,8.0566,10.437
984694,1.0981,-0.097,0.4,-23.1323,13.2446,10.7422
984714,1.3309,-0.0033,0.3833,-25.8179,15.2588,12.7563
984738,1.1117,0.0544,0.6005,-18.3105,-1.1597,9.4604
984758,1.02,0.0706,0.631,-17.8833,6.4087,9.0942
984780,0.9945,0.1654,0.6959,-11.3525,2.8076,5.3101
984800,0.8937,0.2108,0.6627,-8.4839,-0.8545,5.4321
984820,0.8929,0.1888,0.6636,-18.4326,6.7139,4.8218
984840,0.9117,0.1073,0.5869,-21.4233,9.5215,0.1831
984862,0.9121,0.0938,0.5668,-21.2402,14.1602,-8.8501
984883,0.9413,0.1143,0.4956,-16.1743,15.5029,-13.6719
984903,0.905,0.1226,0.4427,-10.7422,13.9771,-16.8457
984923,0.8582,0.1265,0.3835,-8.4839,3.3569,-17.2729
984947,0.7788,0.1228,0.3719,-6.8359,5.7983,-17.4561
984967,0.7256,0.1217,0.3441,-6.5918,5.6763,-12.3901
984987,0.7358,0.1179,0.3129,-5.249,8.5449,-9.2773
985007,0.7258,0.1122,0.2858,-1.5259,7.019,-6.3477
985028,0.7177,0.1008,0.2629,3.1738,0.1831,-6.1646
985048,0.6852,0.0836,0.2462,5.7983,-0.4883,-5.8594
985068,0.7048,0.0631,0.2303,6.5308,1.8921,-5.3101
985092,0.7565,0.0674,0.2308,8.2397,-1.709,-5.5542
985112,0.7649,0.0527,0.2543,8.1787,-3.0518,-4.5166
985132,0.7484,0.0453,0.2731,8.1787,-3.9062,-4.2725
985152,0.745,0.0542,0.2766,8.1177,-0.5493,-4.7607
985175,0.8523,0.0586,0.2863,9.6436,3.8452,-4.1504
985195,0.9611,0.067,0.2716,9.2773,7.2021,-3.0518
985215,1.0321,0.0737,0.2792,8.8501,3.1128,-4.2725
985235,1.0908,0.0638,0.2639,7.4463,-1.0376,-5.5542
985256,1.1049,0.0732,0.2849,7.5684,-1.4648,-7.4463
985276,1.0503,0.1285,0.3882,11.3525,1.3428,-11.7188
985296,1.2052,0.1223,0.3292,15.3198,7.0801,-8.7891
985316,1.0999,-0.0067,0.531,17.5171,9.7046,-9.3384
985336,1.1521,-0.0361,0.5795,18.3105,13.0615,-9.4604
985356,1.2361,-0.2,0.5914,11.9629,6.1035,-3.1738
985376,1.0472,-0.292,0.6113,4.3945,0.9766,-2.5635
985396,1.007,-0.2347,0.5623,7.3853,4.2725,-6.5918
985416,0.9736,-0.1647,0.5388,16.1743,2.0752,-6.897
985436,0.918,-0.1124,0.496,22.3389,-2.5635,-0.4883
985456,0.8469,-0.0867,0.4529,24.8413,-0.8545,5.4321
985476,0.8245,-0.0823,0.4153,23.6206,2.2583,11.9629
985496,0.8546,-0.0879,0.3403,20.752,3.7842,16.6016
985519,0.7584,-0.1006,0.2953,17.9443,4.8828,17.4561
985539,0.7418,-0.1018,0.2655,13.0615,10.5591,18.1885
985559,0.7777,-0.1271,0.2424,7.2632,15.8081,21.0571
985579,0.8063,-0.1254,0.2439,2.7466,6.0425,17.2729
985599,0.798,-0.1381,0.2417,1.6479,-3.9673,15.8691
985622,0.7378,-0.1218,0.2427,0.6104,-9.1553,16.1743
985642,0.7445,-0.0942,0.2482,-1.4648,-17.0288,11.9019
985663,0.7703,-0.1077,0.2257,-2.8076,-17.6392,7.8125
985683,0.7325,-0.1208,0.2471,-3.2959,-18.6157,5.0049
985703,0.7043,-0.1239,0.2538,-4.8218,-18.9209,4.8218
985723,0.7205,-0.1066,0.2788,-7.2021,-11.7798,3.418
985743,0.7764,-0.0466,0.2697,-4.1504,-3.1128,1.709
985763,0.8604,-0.0254,0.267,-1.2207,0,2.1362
985783,0.9641,-0.0153,0.2552,-0.3052,4.4556,6.5308
985803,1.082,-0.0526,0.252,-3.7842,2.0752,12.085
985823,1.1206,-0.0562,0.2468,-5.4321,0.8545,13.6108
985843,1.1008,-0.0482,0.2585,-8.728,0.7324,14.0991
985863,1.1488,-0.063,0.3223,-10.376,0.3662,14.4653
985883,1.3209,-0.038,0.3507,-7.8125,-0.061,13.6108
985903,1.1738,0.0615,0.5112,-3.1738,-13.3667,10.3149
985923,1.0586,0.0787,0.6266,-4.1504,-13.855,10.498
985943,1.0103,0.1357,0.6973,-2.7466,-12.6953,10.0708
985963,0.8755,0.153,0.7006,-6.1646,-7.6904,6.2866
985983,0.881,0.1328,0.6538,-13.7939,-2.8076,5.9814
986003,0.9188,0.0836,0.629,-23.8037,6.7139,3.418
986023,0.9536,0.0525,0.5476,-30.8838,14.5874,-4.1504
986043,0.988,0.0831,0.5018,-29.1748,14.7705,-10.0098
986063,0.9441,0.0969,0.4449,-26.2451,11.2305,-14.6484
986083,0.8958,0.0963,0.399,-23.4985,8.4229,-23.6816
986103,0.7443,0.0765,0.3311,-23.6206,11.4136,-27.0996
986124,0.7,0.08,0.3112,-23.3765,14.4653,-26.4893
986144,0.7201,0.0997,0.2495,-23.2544,22.8882,-20.813
986164,0.7329,0.1099,0.2244,-17.8223,13.6719,-19.8364
986186,0.7382,0.113,0.1876,-13.0005,7.5073,-16.7236
986206,0.7141,0.0966,0.1819,-9.2773,-0.4883,-13.6108
986226,0.7122,0.0748,0.1715,-5.0659,-9.8267,-15.2588
986250,0.7031,0.0884,0.1849,-4.2725,-10.498,-11.1084
986270,0.8109,0.1088,0.2468,-4.0283,-11.3525,-8.0566
986290,0.8352,0.0989,0.2446,2.1973,-19.2871,-3.7842
986310,0.8597,0.0662,0.2803,2.7466,-14.9536,-1.3428
986332,0.8058,0.1071,0.2932,3.1128,-10.9253,-0.6104
986352,0.9038,0.1298,0.3003,4.5166,-2.6245,0.6714
986393,1.0179,0.1342,0.2908,9.9487,-1.4648,-2.1362
986454,1.1835,0.0577,0.3805,16.1133,1.4038,-12.7563
986474,1.313,0.0226,0.3026,15.9302,1.9531,-11.7798
986494,1.0706,-0.0402,0.5808,13.7939,-3.3569,-13.916
986514,1.1494,-0.1071,0.5988,13.0005,-4.8218,-8.2397
986537,1.0104,-0.2448,0.6478,7.8125,-6.4697,-4.5166
986557,0.8706,-0.2382,0.6643,7.9346,-0.6104,-4.3335
986579,0.8831,-0.1335,0.6185,14.4043,1.77,-2.4414
986599,0.9335,-0.1147,0.5707,23.7427,0.1831,6.5918
986619,0.9232,-0.1475,0.5013,24.9023,1.2207,14.0991
986640,0.9391,-0.1571,0.4695,22.7661,2.0142,18.7988
986660,0.9495,-0.118,0.385,21.8506,-6.7749,20.1416
986680,0.8529,-0.1047,0.3527,20.1416,-11.8408,20.2637
986703,0.7686,-0.1027,0.3141,15.8081,-8.606,21.0571
986723,0.756,-0.1002,0.2881,13.6108,1.4648,23.6206
986743,0.799,-0.1071,0.2627,7.0801,3.1738,21.9727
986763,0.757,-0.1168,0.2577,7.1411,-17.0898,18.5547
986783,0.6797,-0.1003,0.2782,5.6152,-23.4985,17.395
986803,0.6866,-0.0862,0.2865,2.2583,-21.6064,15.3809
986823,0.7242,-0.0565,0.2914,4.9438,-30.2124,13.4888
986843,0.6771,-0.068,0.2903,6.897,-34.0576,11.4136
986863,0.6888,-0.0801,0.3318,1.8921,-27.1606,8.4839
986884,0.7537,-0.0881,0.3422,-0.3662,-20.6909,6.7139
986904,0.8171,-0.09,0.3739,-5.188,-13.916,3.2349
986924,0.8466,-0.0721,0.3826,-5.4321,-10.1929,2.9297
986944,0.8322,-0.0627,0.4005,-4.6387,-8.728,4.2114
986964,0.8912,-0.0736,0.4148,-6.2256,-7.1411,5.3101
986984,0.9386,-0.0726,0.4008,-8.2397,-6.958,6.7749
987004,0.9629,-0.0385,0.3955,-12.3901,-4.9438,8.8501
987024,0.9562,-0.0511,0.4291,-14.5264,-1.0376,9.4604
987044,1.0901,-0.0569,0.525,-18.3105,7.5684,10.8643
987064,1.2465,0.0663,0.5071,-14.7705,-0.1831,9.5825
987084,1.0399,0.118,0.7299,-9.9487,-12.4512,8.7891
987104,1.0226,0.1421,0.7655,-7.5684,-7.9956,8.728
987124,0.9076,0.1958,0.7543,-4.8828,-5.0049,4.4556
987144,0.7949,0.1919,0.776,-5.0659,-1.0376,2.7466
987164,0.7246,0.0935,0.7115,-12.0239,5.9204,2.1362
987184,0.7759,0.059,0.7151,-24.9634,22.2778,-3.6621
987207,0.854,0.0775,0.6283,-26.9775,20.5078,-11.9019
987227,0.889,0.1237,0.5654,-21.3623,14.0991,-20.3247
987247,0.8763,0.1511,0.5005,-18.3105,18.0664,-20.6299
987267,0.9097,0.1493,0.4362,-16.0522,16.3574,-21.4233
987287,0.8322,0.1107,0.3892,-14.8926,11.5967,-21.9727
987308,0.7816,0.104,0.3809,-14.7705,9.9487,-22.522
987328,0.7648,0.1094,0.3331,-14.6484,11.8408,-17.6392
987348,0.7653,0.1298,0.309,-10.0098,14.5874,-14.4653
987368,0.7561,0.1267,0.2887,-5.3101,8.4839,-12.9395
987388,0.7194,0.0978,0.2686,1.1597,-6.1035,-10.6201
987408,0.688,0.0807,0.2692,2.4414,-8.3618,-9.6436
987428,0.6599,0.0695,0.2738,2.1973,-9.3384,-8.8501
987448,0.741,0.0962,0.291,3.0518,-7.019,-5.7373
987470,0.7786,0.0922,0.3048,4.2725,-9.2163,-3.2959
987490,0.7638,0.0826,0.3423,6.2866,-12.7563,-2.6245
987510,0.7744,0.0836,0.3541,7.4463,-14.3433,-3.7231
987532,0.8097,0.1014,0.3579,7.8735,-12.0239,-3.2959
987556,0.9012,0.0911,0.3705,7.5073,-5.0049,-3.3569
987576,0.964,0.0773,0.3903,9.1553,-5.4321,-6.0425
987596,1.0161,0.0839,0.3685,9.9487,-3.9062,-8.3618
987616,1.0211,0.0889,0.3864,10.9863,-4.8828,-11.1084
987636,1.1018,0.1125,0.47,12.3291,-1.6479,-13.0005
987656,1.2667,0.0341,0.4255,15.1367,-3.479,-11.1694
987676,1.0874,-0.0521,0.5879,15.1367,-8.1787,-13.4277
987696,1.1018,-0.075,0.6598,14.8315,-7.6294,-14.2212
987716,1.0387,-0.1951,0.6793,7.0801,-6.5918,-13.2446
987736,0.7919,-0.2273,0.6941,2.8687,-3.7231,-14.2212
987756,0.7684,-0.1593,0.666,3.8452,5.249,-12.6343
987776,0.7289,-0.1128,0.6881,10.9863,4.4556,-0.6714
987796,0.8698,-0.1332,0.6412,12.5732,9.1553,5.7373
987816,0.8167,-0.1724,0.6135,16.4185,5.4932,12.6343
987836,0.828,-0.1874,0.613,15.1367,4.5166,17.8223
987856,0.8545,-0.1373,0.5455,14.4653,4.1504,20.2026
987876,0.8376,-0.0996,0.5074,14.4653,3.6621,18.6768
987896,0.7776,-0.1321,0.4766,14.2822,1.77,19.5923
987916,0.7603,-0.1429,0.4438,12.7563,8.3618,23.0103
987937,0.7439,-0.1407,0.4086,8.5449,13.7329,22.1558
987957,0.717,-0.1384,0.3511,2.0142,17.8833,19.165
987977,0.7095,-0.1099,0.318,0.7324,6.7749,16.6626
987997,0.7065,-0.08,0.3087,-0.1221,3.418,14.0991
988017,0.6949,-0.0715,0.2687,-3.2349,6.7139,12.6953
988037,0.7069,-0.0724,0.2577,-4.9438,-1.0986,9.8877
988057,0.7135,-0.0728,0.2747,-5.0049,-6.5918,8.606
988078,0.7292,-0.0852,0.286,-8.3008,-6.4697,5.9204
988098,0.7632,-0.0815,0.3285,-11.4746,-8.3008,3.3569
988118,0.7854,-0.0588,0.3531,-11.7188,-7.3242,3.0518
988138,0.8175,-0.0637,0.3621,-11.1694,-6.7749,3.3569
988158,0.8844,-0.0955,0.3761,-12.5122,2.8076,4.0283
988178,1.0317,-0.0477,0.371,-18.1885,9.8877,6.8359
988198,1.0477,-0.0382,0.3668,-20.1416,5.188,8.606
988219,1.0601,-0.078,0.3459,-23.6816,3.418,10.7422
988239,1.1564,-0.0922,0.4415,-29.8462,8.3618,7.3853
988259,1.3038,0.0359,0.3906,-27.4658,1.709,6.4697
988279,1.1154,0.1018,0.6118,-23.0713,-8.1177,6.1035
988343,0.7723,0.2222,0.6978,-10.498,-6.2256,7.8125
988388,0.859,0.1257,0.6199,-24.231,16.1133,-0.8545
988428,0.8849,0.1819,0.543,-19.5312,-3.8452,-16.4795
988448,0.8597,0.1738,0.5187,-17.6392,2.0752,-16.7847
988468,0.8458,0.1621,0.4587,-17.1509,9.8877,-17.0898
988488,0.8391,0.1487,0.4142,-17.0288,10.6812,-19.9585
988508,0.7764,0.1207,0.3955,-14.6484,4.0283,-19.7144
988528,0.7582,0.1066,0.3545,-15.1978,10.9863,-17.7612
988548,0.7834,0.1259,0.3289,-12.8784,10.3149,-16.5405
988568,0.7338,0.1046,0.3077,-8.4839,2.4414,-17.5171
988592,0.6759,0.082,0.2877,-6.2256,1.4038,-16.4185
988612,0.6665,0.0662,0.2709,-5.9814,0.8545,-15.7471
988632,0.6913,0.0686,0.2682,-6.7139,2.8076,-14.7705
988652,0.7229,0.0773,0.2925,-5.8594,2.6245,-13.6108
988672,0.7344,0.0853,0.2853,-5.9204,1.0376,-11.2915
988692,0.7617,0.1036,0.3099,-3.479,0.6104,-10.0098
988712,0.8055,0.0983,0.3071,0.1221,1.0986,-7.3853
988732,0.8599,0.1095,0.3142,1.5869,2.6855,-6.897
988752,0.9012,0.1313,0.324,3.2959,-1.0376,-6.2866
988772,0.9681,0.137,0.3383,6.4087,-1.2207,-4.3945
988792,1.0736,0.0934,0.3108,7.9956,-2.5024,-3.7842
988813,1.0807,0.0962,0.314,8.0566,-4.1504,-4.6387
988833,1.0453,0.1193,0.3657,13.7329,-6.897,-8.9111
988856,1.218,0.1057,0.3981,17.7612,-4.5776,-7.3853
988876,1.1187,-0.0154,0.5049,17.9443,-5.6152,-7.1411
988896,1.129,-0.0743,0.6041,15.0757,-5.6763,-9.0942
988916,1.0983,-0.1783,0.6436,6.5308,-10.0708,-8.7891
988936,0.9207,-0.1749,0.6494,3.9673,-12.4512,-10.8032
988956,0.7424,-0.1257,0.642,11.7798,-10.5591,-11.9629
988976,0.8143,-0.0972,0.6338,17.4561,-2.5635,-6.2256
988996,0.8616,-0.0952,0.6152,21.3013,1.77,-0.061
989016,0.8729,-0.1106,0.5675,23.7427,3.7231,10.0098
989036,0.8654,-0.1547,0.5383,21.8506,7.1411,14.0381
989056,0.9156,-0.1615,0.5011,20.6909,8.0566,17.7002
989076,0.845,-0.1163,0.4348,19.8364,2.6245,16.8457
989096,0.8151,-0.124,0.4137,21.1182,-2.9297,15.1367
989118,0.7651,-0.1345,0.3799,20.0195,-1.709,16.3574
989138,0.7294,-0.1373,0.3749,17.5171,0.4272,17.8833
989178,0.7096,-0.1068,0.3247,9.1553,4.5166,19.7144
989199,0.7219,-0.1049,0.3134,8.1787,1.4648,19.7754
989219,0.7689,-0.0901,0.3069,5.6152,-1.5259,15.1978
989239,0.7219,-0.116,0.2886,2.9297,-9.5825,11.4136
989259,0.714,-0.1382,0.3121,-1.1597,-3.6621,9.3384
989282,0.7324,-0.1259,0.2985,-2.9907,-7.6904,7.0801
989302,0.7286,-0.1357,0.3267,-4.7607,-10.8032,4.1504
989322,0.8088,-0.1041,0.328,-8.1177,-6.2866,3.7842
989342,0.8253,-0.0951,0.3302,-8.7891,-2.8076,3.9673
989362,0.8645,-0.0731,0.3446,-9.5825,-1.2817,4.8218
989382,1.0415,-0.0508,0.3445,-11.1084,-1.8921,7.5684
989402,1.0483,-0.0726,0.3553,-12.8174,-5.6152,9.9487
989422,1.0381,-0.0782,0.3488,-16.9067,-4.5166,9.6436
989442,1.0828,-0.0918,0.427,-18.9209,-4.6387,9.1553
989462,1.2969,-0.0323,0.4056,-23.8647,-0.1831,11.1694
989482,1.1331,0.0332,0.5406,-21.6064,-5.0659,9.7046
989502,1.0878,0.0768,0.6653,-16.2354,-8.7891,8.5449
989524,1.1105,0.1541,0.7286,-11.5356,-8.1787,9.5825
989544,0.8273,0.2091,0.7133,-4.3335,-15.625,8.7891
989564,0.7281,0.167,0.6743,-7.019,3.1128,9.0332
989584,0.7346,0.1451,0.651,-13.0615,13.916,6.897
989604,0.7812,0.0774,0.6157,-15.686,15.5029,1.8311
989624,0.7865,0.0601,0.5684,-18.3105,15.0146,-8.0566
989645,0.7976,0.105,0.516,-14.7705,12.5732,-12.3291
989665,0.7798,0.1328,0.4758,-10.437,14.8926,-14.8315
989686,0.7482,0.1783,0.4197,-7.0801,19.7144,-14.2212
989706,0.7451,0.1837,0.3712,-5.4321,22.3999,-11.8408
989729,0.8375,0.1392,0.3324,-1.0376,18.9209,-11.2305
989749,0.8613,0.1205,0.3147,-3.9062,14.9536,-7.2632
989769,0.8633,0.1138,0.3212,-0.6714,3.418,-6.0425
989790,0.7939,0.0824,0.2899,3.0518,-3.418,-5.188
989810,0.8029,0.0719,0.2805,3.8452,-4.1504,-4.6387
989850,0.7323,0.0708,0.2877,10.2539,-20.6909,-5.4321
989870,0.7192,0.0837,0.3118,10.6812,-21.9727,-3.1738
989890,0.7483,0.0653,0.3448,12.9395,-22.4609,0.1831
989910,0.7371,0.0654,0.3715,14.0991,-20.5688,1.4038
989930,0.77,0.0809,0.3833,14.6484,-18.7378,1.5869
989950,0.8191,0.0909,0.3895,15.7471,-17.8833,2.0142
989970,0.86,0.0864,0.402,14.7705,-15.0146,0.3052
989990,0.8925,0.104,0.4258,16.4185,-15.5029,-1.709
990010,0.951,0.09,0.4293,18.4326,-13.4888,-3.479
990030,0.9763,0.0581,0.428,17.8223,-6.1646,-4.7607
990054,1.1064,0.0588,0.505,17.9443,-1.8921,-7.8735
990074,1.2173,0.0387,0.4323,19.043,-1.3428,-7.9346
990095,1.002,-0.0486,0.6946,20.5078,-10.9253,-10.3149
990115,1.1097,-0.0944,0.7458,19.7754,-2.1973,-6.6528
990136,1.0997,-0.1761,0.7581,16.4795,-4.8828,-4.9438
990156,0.8226,-0.2847,0.7806,12.7563,0.2441,-6.2866
990176,0.7487,-0.2432,0.7905,12.4512,15.625,-7.2632
990196,0.785,-0.14,0.7311,16.7236,21.7896,-3.8452
990216,0.8041,-0.0864,0.6552,23.0103,23.7427,2.8076
990236,0.7825,-0.092,0.6145,27.5269,21.7896,14.2212
990256,0.8113,-0.1254,0.5551,27.0996,19.165,19.7144
990276,0.8436,-0.1063,0.4709,23.4985,25.2686,22.3389
990296,0.8245,-0.0975,0.4424,23.8037,24.8413,22.3389
990316,0.7838,-0.0963,0.4147,25.0244,23.6816,22.8882
990336,0.7679,-0.0991,0.3782,25.3906,23.1934,25.3296
990356,0.7457,-0.1201,0.3319,22.644,18.4937,26.5503
990376,0.7225,-0.1302,0.3138,20.1416,14.7705,26.001
990396,0.7321,-0.1316,0.2732,18.6768,9.7656,23.5596
990420,0.7537,-0.1205,0.2625,14.0991,4.0283,24.4751
990440,0.7655,-0.1201,0.2216,10.1929,0.8545,24.353
990460,0.7449,-0.1238,0.2559,5.188,-4.0894,20.813
990480,0.6758,-0.1516,0.3099,-0.4883,-3.9673,16.4185
990501,0.6278,-0.1652,0.3556,-6.897,2.8687,12.4512
990521,0.7606,-0.1449,0.3872,-11.2915,36.9873,9.7046
990541,0.9177,-0.0966,0.3417,-5.127,31.25,9.3994
990561,0.8683,-0.0613,0.3357,-1.6479,23.8037,7.1411
990583,0.8862,-0.0382,0.2881,-1.0376,23.8647,7.2021
990603,0.9871,-0.0466,0.2631,-5.7983,23.6206,11.6577
990623,1.0355,-0.0388,0.2458,-10.1318,22.0337,14.4043
990643,1.0376,-0.026,0.2666,-16.6016,21.6675,15.3809
990663,1.0778,-0.0304,0.3167,-20.813,25.6958,17.7612
990684,1.2803,0.0291,0.2593,-20.2637,27.71,18.8599
990704,1.2982,0.0803,0.3955,-12.146,16.6016,15.7471
990724,1.4089,0.1038,0.3353,-9.5215,2.3193,13.4888
990744,1.259,0.1603,0.3866,-8.8501,-10.7422,9.6436
990764,0.9034,0.182,0.4498,-6.8359,-23.0103,10.9863
990784,0.7937,0.142,0.4525,-11.2305,-16.7847,13.3667
990804,0.7694,0.1064,0.4619,-24.1699,0.2441,8.667
990824,0.9048,0.1243,0.4111,-27.1606,-5.6152,-1.5259
990844,0.9197,0.127,0.4308,-24.5361,-24.4141,-11.3525
990864,0.9374,0.1316,0.4139,-17.6392,-29.7852,-16.6016
990884,0.9901,0.1899,0.4113,-10.6201,-28.3813,-18.9819
990904,0.9166,0.2258,0.3961,-4.6387,-19.9585,-15.7471
990924,0.8969,0.2219,0.407,-6.8359,-20.5688,-14.1602
990944,0.8424,0.155,0.4036,-2.3193,-30.5176,-13.9771
990965,0.7894,0.1586,0.3866,-1.3428,-22.3999,-11.7188
990988,0.7456,0.1448,0.3823,0.8545,-9.3994,-5.8594
991008,0.7045,0.0994,0.3385,2.7466,-2.1973,-3.3569
991028,0.7281,0.0967,0.2869,7.6904,-2.3804,-2.1973
991048,0.7318,0.0941,0.2753,10.3149,-4.2725,-3.479
991068,0.7317,0.0962,0.2701,13.0615,-5.4321,-4.0283
991088,0.731,0.0948,0.28,14.4653,-5.8594,-2.5635
991108,0.7513,0.0874,0.2773,14.8315,-5.9814,15.1978
991131,0.774,0.0837,0.2982,16.1133,-6.5308,1.77
991151,0.788,0.0975,0.3168,19.104,-6.2866,4.6387
991171,0.8418,0.0942,0.3304,19.6533,-5.3101,6.3477
991191,0.8804,0.0739,0.3269,19.8364,-6.4087,6.4087
991211,0.9344,0.0793,0.3267,19.4702,-8.9722,4.2725
991251,0.9885,0.0839,0.3187,18.2495,-12.146,1.1597
991272,0.9797,0.101,0.3811,22.2778,-15.564,-0.4272
991292,1.1812,0.1127,0.3684,23.3765,-12.0239,1.0376
991312,1.0522,0.0457,0.4778,24.5972,-18.1274,0.061
991334,1.1113,0.0277,0.6488,25.5127,-18.2495,-1.9531
991354,1.1528,-0.0582,0.7236,24.0479,-17.2119,-1.4038
991374,0.9017,-0.215,0.7993,18.6768,-16.4185,-2.6855
991394,0.8011,-0.2146,0.7919,17.8223,-4.0894,-5.6152
991414,0.7607,-0.1425,0.7832,21.2402,7.1411,-8.1787
991436,0.7869,-0.0476,0.6885,32.3486,9.2163,-4.2114
991456,0.8051,-0.0322,0.6213,40.7104,14.8315,8.8501
991477,0.814,-0.0663,0.5377,42.4805,11.1694,18.0054
991497,0.826,-0.1072,0.527,39.6118,10.7422,25.0854
991517,0.8594,-0.0837,0.475,39.4897,13.855,27.0996
991537,0.8185,-0.0885,0.458,39.6729,10.8032,28.0762
991557,0.7625,-0.0948,0.455,37.4756,23.0713,31.4941
991577,0.7605,-0.1079,0.3997,40.0391,23.2544,32.7759
991597,0.7671,-0.1385,0.376,41.8091,20.752,31.4331
991617,0.7489,-0.1517,0.3444,40.4663,15.7471,29.7241
991639,0.7889,-0.1553,0.3373,36.0107,18.9209,30.4565
991659,0.7938,-0.1603,0.296,31.189,8.728,30.6396
991679,0.7874,-0.1704,0.2816,26.6113,7.019,28.0762
991700,0.7816,-0.2003,0.2798,19.7754,1.2817,26.2451
991720,0.801,-0.2253,0.2806,12.8784,-0.9766,24.4141
991740,0.8481,-0.2328,0.2709,4.5166,-0.8545,20.5688
991760,0.8341,-0.1956,0.3076,-1.4648,-2.1362,17.8833
991780,0.8005,-0.1415,0.3381,3.3569,-1.2817,16.4185
991800,0.8571,-0.0717,0.3687,3.6621,-0.4883,15.9302
991820,0.88,-0.0708,0.3755,4.1504,-1.3428,16.4185
991840,0.9475,-0.0663,0.3606,1.2207,0.061,17.0898
991860,0.9899,-0.0291,0.3523,-4.3945,1.77,17.6392
991880,0.9686,-0.0251,0.3408,-7.2632,0.9155,18.5547
991900,0.9564,-0.0403,0.3717,-12.6953,2.1973,18.1885
991920,1.0669,-0.0428,0.3483,-14.0381,7.1411,17.5781
991940,1.1381,0.0093,0.3615,-12.2681,6.4697,17.0898
991960,0.9817,0.0626,0.4961,-10.1318,2.6245,14.4043
992023,0.8782,0.2921,0.6278,11.7188,-9.5825,11.5356
992044,0.775,0.2548,0.6332,14.4653,-7.019,12.5732
992064,0.759,0.2295,0.6014,12.0239,0.1831,14.5874
992086,0.802,0.1582,0.5726,6.1035,7.2021,11.8408
992106,0.8403,0.1351,0.5464,6.5308,7.7515,3.6621
992126,0.8149,0.1748,0.5253,10.6812,7.2021,-1.77
992147,0.8364,0.2006,0.4974,16.6016,6.0425,-3.1128
992167,0.851,0.1798,0.4762,24.0479,8.728,-1.5259
992187,0.8547,0.1593,0.4282,24.6582,16.4795,0.1221
992207,0.8203,0.1324,0.4319,28.6865,11.5967,0.7935
992227,0.8142,0.1421,0.4192,30.2734,17.334,4.2114
992251,0.8424,0.1575,0.3798,37.6587,17.7612,7.9956
992272,0.8469,0.1393,0.3623,43.0298,11.9019,9.8267
992292,0.8412,0.1088,0.3442,47.1802,14.0381,12.4512
992312,0.8257,0.0858,0.3278,49.4995,5.188,12.6953
992332,0.8391,0.077,0.3154,51.3916,1.4648,14.0381
992352,0.8365,0.0823,0.319,53.1006,2.9907,17.6392
992372,0.8154,0.0845,0.3114,55.542,1.77,20.813
992392,0.8347,0.078,0.3103,56.7627,5.7373,22.0947
992412,0.8116,0.0499,0.2994,57.4341,9.8877,22.0947
992432,0.8098,0.0433,0.2843,57.8003,12.8174,20.5078
992452,0.9021,0.0446,0.2626,57.1899,15.7471,19.8364
992472,0.9193,0.0396,0.2675,55.9692,15.9912,19.7754
992492,0.9297,0.0439,0.2687,57.0679,10.1318,18.7988
992512,0.9747,0.0645,0.26,59.2651,3.7231,18.2495
992532,0.9653,0.0701,0.2755,59.2651,0.3662,19.2261
992555,0.8794,0.0547,0.2863,59.1431,-3.7231,18.3716
992575,0.8347,0.0699,0.2937,60.1807,4.0283,14.8315
992595,0.8679,0.0748,0.3309,60.73,13.0005,13.9771
992615,0.9885,0.0817,0.2992,63.5376,18.3716,14.2212
992636,1.0757,0.0463,0.3728,65.4907,16.2354,14.5874
992656,1.1548,0.0281,0.4199,65.3687,13.5498,16.4795
992676,1.3232,-0.0377,0.4594,63.1714,8.1177,18.1885
992696,1.1923,-0.1565,0.4896,58.6548,3.1128,16.8457
992716,1.0328,-0.1516,0.5121,58.8379,2.9297,13.1226
992736,0.8959,-0.0847,0.486,65.1855,11.2305,7.8125
992756,0.8705,-0.0537,0.4747,71.5332,16.9067,11.6577
992778,0.8899,-0.0101,0.4222,79.6509,15.0757,15.7471
992838,0.9,-0.1147,0.3209,81.4819,4.6997,32.7148
992858,0.9569,-0.1426,0.2858,78.7964,2.5024,34.3628
992878,0.9287,-0.1593,0.2816,77.0264,3.3569,35.0342
992898,0.8698,-0.1674,0.2847,76.1108,3.9062,37.1704
992918,0.8787,-0.187,0.2743,73.1812,-1.709,34.3628
992939,0.8685,-0.2114,0.275,71.8384,-7.8735,33.5693
992959,0.8444,-0.2316,0.2882,66.5894,-8.7891,32.7148
992979,0.829,-0.2244,0.2916,62.7441,-7.0801,31.8604
992999,0.8119,-0.2092,0.2792,60.9741,-6.6528,32.6538
993020,0.7953,-0.2189,0.29,55.4199,-10.3149,32.2266
993040,0.8346,-0.2179,0.2803,49.6216,-5.7983,31.4941
993060,0.837,-0.2117,0.2697,48.2788,-8.0566,29.7852
993081,0.7946,-0.1957,0.2908,44.0063,-8.2397,29.1748
993101,0.8264,-0.198,0.2855,37.2925,-5.8594,29.2969
993121,0.8921,-0.1859,0.3044,33.0811,-5.6763,28.5034
993141,0.9131,-0.1787,0.3019,30.3345,-8.9722,26.9165
993161,0.9402,-0.1735,0.3101,26.4282,-10.437,25.2075
993181,1.0029,-0.1432,0.3257,23.8037,-11.5967,24.1089
993201,1.0427,-0.1407,0.326,19.5312,-14.4653,24.0479
993221,1.0859,-0.1359,0.3162,12.8784,-17.0288,24.9634
993241,0.9734,-0.1206,0.3655,5.8594,-16.4795,25.5737
993261,0.9645,-0.1006,0.3682,-0.6104,-9.8877,26.3062
993281,1.0468,-0.0271,0.4109,0.061,-2.0142,26.6724
993301,0.9996,0.0114,0.4519,5.7373,-8.1177,25.1465
993324,0.9595,0.0421,0.5352,7.2021,-5.0049,22.1558
993344,1.0463,0.0684,0.5627,8.1177,3.9062,20.0806
993365,1.032,0.1273,0.6224,10.0708,0.6104,17.0288
993385,0.9379,0.1716,0.6108,13.1226,-1.2817,12.2681
993405,0.7932,0.1997,0.6017,15.3809,0.7935,11.2915
993425,0.7174,0.2229,0.6033,14.5264,6.7749,13.1226
993445,0.6571,0.2031,0.5964,13.7939,5.4321,12.207
993465,0.6775,0.1929,0.5908,15.2588,6.5308,12.085
993487,0.6929,0.1835,0.5664,22.0337,4.8828,8.1177
993507,0.6565,0.1808,0.5552,26.4893,7.9346,7.2021
993527,0.7361,0.1995,0.5125,29.2358,20.6909,7.3242
993547,0.8014,0.22,0.4711,37.0483,22.2168,10.6201
993571,0.8286,0.2192,0.4261,47.8516,25.2075,14.0991
993591,0.8434,0.2023,0.4207,56.5186,16.2964,15.9302
993611,0.8588,0.1748,0.3859,62.7441,14.0991,19.2871
993631,0.8737,0.1477,0.3585,68.7256,18.7988,23.4985
993654,0.8796,0.1241,0.3479,74.4629,15.8691,27.2217
993674,0.9093,0.1073,0.3209,78.3691,13.9771,31.1279
993694,0.9385,0.0902,0.3051,80.8716,11.1084,33.02
993714,0.9366,0.0687,0.2953,83.1909,6.4087,34.9121
993734,0.9381,0.0618,0.2927,84.4116,2.3804,36.0718
993754,0.9259,0.0438,0.3059,85.2051,-2.8687,36.9263
993775,0.9248,0.0315,0.3075,84.9609,-4.8828,37.4146
993795,0.9039,0.0199,0.3035,83.8623,-6.4697,37.1094
993816,0.8541,0.0089,0.3093,82.5806,-5.3101,36.3159
993838,0.8696,0.0167,0.3022,80.8105,-0.3662,34.3628
993858,0.8416,0.021,0.3154,78.7354,2.0142,32.7148
993878,0.8524,0.0264,0.3221,78.186,3.3569,32.0435
993898,0.8966,0.0258,0.3105,77.5757,5.7983,30.2734
993918,0.9049,0.0287,0.3032,76.7212,4.0283,29.4189
993938,0.8928,0.022,0.3104,73.3032,0.9766,28.5034
993958,0.9219,0.0179,0.2988,69.9463,1.4038,27.2217
993978,0.9561,0.012,0.2942,67.8101,-0.7324,23.6816
993998,0.9669,0.0165,0.3033,66.4062,-0.5493,20.5078
994018,1.0034,0.0472,0.3301,66.3452,3.2959,15.9302
994038,1.024,0.0653,0.327,67.627,3.8452,14.5874
994058,0.9923,0.0461,0.4327,69.397,3.9062,14.2822
994078,1.0787,0.0094,0.5052,69.8242,5.7373,15.625
994099,1.188,-0.1118,0.5542,67.749,5.8594,18.4937
994119,1.0996,-0.1963,0.5244,65.0024,2.6245,17.0898
994139,0.9078,-0.2115,0.5444,66.3452,4.3945,13.3057
994159,0.8346,-0.1953,0.5914,67.3218,9.3384,10.8643
994179,0.8698,-0.1409,0.5366,71.5332,10.437,13.2446
994199,0.824,-0.1364,0.5059,76.7822,11.4746,20.2637
994219,0.7756,-0.1481,0.4639,78.2471,12.207,24.5972
994242,0.7946,-0.1495,0.415,79.6509,12.2681,31.5552
994262,0.8296,-0.1509,0.3699,80.3833,12.6343,35.0952
994282,0.8438,-0.1348,0.3102,79.2236,21.3623,36.6211
994302,0.8229,-0.1381,0.287,76.9653,26.062,35.6445
994322,0.8027,-0.1812,0.2482,75.6226,23.0103,35.8887
994342,0.8073,-0.204,0.2374,71.9604,21.4233,36.0107
994362,0.8494,-0.2032,0.2346,67.2607,19.7144,35.4004
994382,0.9053,-0.213,0.2163,63.3545,9.0332,31.9214
994404,0.8593,-0.2054,0.2145,61.4624,1.5869,33.2642
994424,0.8568,-0.2158,0.2051,54.6875,-5.249,31.9824
994445,0.8722,-0.2363,0.2096,46.9971,-5.9814,27.771
994465,0.8674,-0.2273,0.2183,38.6963,-4.8828,21.9727
994485,0.8596,-0.2151,0.2377,34.729,-7.1411,20.813
994505,0.8627,-0.2186,0.2308,27.6489,-10.9863,20.2637
994525,0.9094,-0.1985,0.2489,23.4985,-10.0708,21.0571
994545,0.9252,-0.1777,0.2506,19.3481,-10.5591,22.3389
994565,1.0076,-0.1403,0.2545,13.2446,-10.5591,22.2778
994585,1.0594,-0.1095,0.2578,9.7656,-10.6812,22.644
994605,1.0824,-0.0837,0.2744,5.3711,-11.4746,22.9492
994625,1.0907,-0.0969,0.2648,1.4648,-8.5449,23.9868
994645,1.1036,-0.1296,0.2828,-3.7231,-9.3994,22.0337
994708,0.9797,-0.0134,0.4999,-13.6719,-7.6294,11.5967
994729,1.0236,0.036,0.5585,-10.1929,-3.1128,10.9253
994749,1.0406,0.1014,0.5793,-5.188,-8.606,9.7046
994809,0.7622,0.1332,0.6327,-7.019,-13.916,9.8267
994829,0.7944,0.0911,0.5846,-10.2539,-11.9629,7.2632
994849,0.8087,0.1035,0.5679,-10.8643,-11.4746,-0.9155
994869,0.7688,0.1566,0.5337,-4.1504,-13.2446,-5.249
994889,0.8007,0.1572,0.5175,-2.4414,-10.8032,-5.9204
994913,0.8171,0.1476,0.4766,0.4272,-4.6997,-6.5918
994933,0.7833,0.1483,0.4542,1.1597,-0.5493,-8.7891
994953,0.7582,0.1196,0.4388,3.0518,-2.3193,-8.7891
994973,0.7706,0.121,0.4243,5.0049,-0.1831,-7.5073
994993,0.7939,0.106,0.3921,7.0801,3.2959,-5.9814
995013,0.7836,0.0862,0.3712,9.5215,5.3101,-4.0283
995034,0.7546,0.0797,0.3392,12.0239,2.4414,-4.0283
995054,0.7303,0.0791,0.3328,13.7939,-0.1831,-3.8452
995074,0.7235,0.0934,0.3083,14.1602,0.9155,-3.1738
995094,0.7329,0.098,0.3158,15.5029,3.1128,-2.6245
995114,0.7328,0.0881,0.3204,17.4561,1.8311,-1.4648
995134,0.7236,0.0624,0.3611,18.1885,-1.4038,0.3052
995154,0.7318,0.0566,0.3932,18.2495,5.4321,-0.9766
995177,0.7708,0.0632,0.3936,17.5781,10.1318,-2.1362
995197,0.8716,0.0823,0.4318,16.6016,17.9443,-3.0518
995219,0.9985,0.0992,0.3851,16.9678,20.5688,-3.6011
995239,1.0485,0.0784,0.3595,18.3716,17.2729,-4.5166
995259,1.0449,0.0792,0.3712,18.1274,13.855,-5.8594
995279,1.116,0.1013,0.4274,20.4468,16.8457,-7.5684
995300,1.3068,0.0959,0.359,21.2402,15.564,-7.019
995320,1.1105,-0.0203,0.5265,18.9819,6.7139,-8.728
995340,1.1221,-0.0686,0.5581,15.9912,10.9253,-9.4604
995360,1.1277,-0.1952,0.5677,8.5449,13.4277,-8.1787
995380,0.993,-0.2504,0.5559,2.1362,13.7939,-11.1084
995400,0.8282,-0.2439,0.5806,-0.4272,18.4937,-12.0239
995420,0.8812,-0.1357,0.5426,4.3945,21.5454,-8.9722
995440,0.9475,-0.0839,0.4976,10.6812,12.207,-1.2207
995460,0.8821,-0.0747,0.4609,13.1836,3.7231,2.8076
995482,0.8184,-0.0872,0.454,12.085,3.1738,6.5918
995502,0.8459,-0.0947,0.3939,9.2163,6.8359,10.2539
995522,0.8495,-0.0983,0.3646,8.0566,6.5918,10.9253
995542,0.835,-0.1136,0.3534,7.6294,5.7373,11.1694
995562,0.817,-0.1202,0.3114,6.2256,2.9907,11.0474
995582,0.7954,-0.1383,0.2997,4.3945,-3.418,9.6436
995602,0.782,-0.1316,0.2948,2.1973,-3.3569,9.3384
995622,0.7788,-0.1183,0.2927,1.4038,-3.54,9.4604
995662,0.7451,-0.0974,0.2686,-1.77,-8.3618,7.2632
995682,0.7489,-0.0941,0.2452,-4.0894,-6.897,5.6763
995702,0.7533,-0.1019,0.2634,-3.9062,-10.9253,3.0518
995722,0.7455,-0.129,0.2632,-5.4321,-9.8267,2.7466
995745,0.7567,-0.1051,0.2966,-8.3618,-4.5776,2.1973
995765,0.749,-0.0865,0.3362,-5.3711,-0.8545,2.2583
995785,0.8666,-0.0525,0.3173,-2.6245,1.0376,3.7842
995805,0.9266,-0.0577,0.3364,-0.061,1.77,6.1646
995845,1.0651,-0.0721,0.2959,-6.5918,-0.2441,12.8174
995865,1.0533,-0.0963,0.3048,-15.4419,1.4648,10.1929
995885,1.1228,-0.1058,0.3585,-19.8975,8.0566,9.0332
995905,1.413,-0.0059,0.318,-19.4092,7.7515,11.1084
995925,1.2018,0.0592,0.4935,-13.1226,-8.606,7.0801
995945,1.156,0.1133,0.6257,-11.8408,-8.8501,7.5684
995967,1.0376,0.1661,0.6506,-9.8877,-9.6436,8.1177
995987,0.7943,0.1895,0.6885,-5.9204,-5.3101,5.8594
996007,0.8087,0.1287,0.6616,-20.3247,13.9771,8.1177
996027,0.8746,0.0895,0.5944,-26.6113,20.6909,5.8594
996047,0.9139,0.0646,0.5193,-24.5972,9.0332,-6.2256
996070,0.8501,0.125,0.4976,-17.6392,4.2114,-11.5967
996090,0.848,0.1483,0.46,-10.3149,5.4321,-14.2212
996110,0.8379,0.1459,0.3934,-5.9814,7.7515,-18.3716
996130,0.8062,0.1252,0.3556,-4.9438,6.958,-18.9819
996150,0.7643,0.1072,0.3412,-5.3101,10.8643,-17.334
996170,0.7682,0.1099,0.325,-4.1504,6.6528,-11.7188
996190,0.7767,0.1328,0.3121,-2.9907,6.4697,-9.1553
996210,0.7479,0.126,0.3153,-1.8921,8.667,-4.3945
996273,0.7208,0.0594,0.2717,5.9204,-11.4136,-1.4038
996357,0.848,0.0814,0.296,8.4229,-2.4414,0.061
996377,0.8575,0.0624,0.3101,8.667,-3.479,0.6104
996397,0.8562,0.0417,0.3499,7.2632,-2.9907,1.0986
996417,0.9541,0.0515,0.3193,4.5776,-0.8545,2.1362
996437,1.0172,0.0609,0.3186,3.2349,0.3052,0.9155
996457,1.041,0.0465,0.2894,1.77,-0.2441,-2.2583
996477,0.9913,0.0669,0.3203,2.1973,0.4272,-3.479
996497,1.2177,0.1125,0.3492,7.9956,6.5918,-5.9814
996518,1.2808,0.0835,0.2867,11.4746,1.2207,-5.4321
996538,1.0875,-0.0006,0.5055,12.3291,-1.8311,-8.606
996558,1.1956,-0.0408,0.4921,8.7891,-1.2207,-5.6763
996578,1.0862,-0.1429,0.5526,3.8452,-4.6997,-5.8594
996598,0.8455,-0.2225,0.6327,0.1221,-7.4463,-7.5073
996618,0.85,-0.162,0.6204,5.9204,-1.5869,-7.2021
996638,0.9032,-0.0332,0.5791,13.7939,-6.958,-3.6011
996658,0.8837,-0.005,0.5472,20.5688,-11.4746,2.8076
996681,0.8818,-0.051,0.5046,22.2168,-5.9814,10.6812
996702,0.9178,-0.071,0.4789,19.165,-1.0986,14.7095
996722,0.8958,-0.0731,0.4276,16.5405,0.7324,15.8081
996742,0.8134,-0.0808,0.4095,15.5029,-1.5259,13.916
996762,0.7753,-0.077,0.3865,14.0991,0.5493,13.4277
996782,0.7906,-0.084,0.3379,11.6577,0.1831,13.4888
996803,0.7693,-0.097,0.3224,11.7798,-3.1128,15.9912
996823,0.7223,-0.0927,0.2836,6.3477,6.3477,19.7144
996843,0.7571,-0.0905,0.2683,6.4087,-4.2114,16.7236
996864,0.736,-0.0906,0.2397,4.8828,-8.8501,15.8081
996884,0.7272,-0.0793,0.2479,2.8687,-12.2681,12.146
996904,0.6871,-0.0983,0.2675,-0.7324,-15.0146,7.3853
996924,0.7144,-0.1223,0.2648,-4.9438,-15.9912,3.9062
996944,0.7573,-0.1416,0.3414,-14.2212,-10.2539,-1.5869
996964,0.7867,-0.1212,0.3732,-15.9302,-2.0752,-2.3804
996984,0.818,-0.0723,0.3658,-11.9629,0.7935,-1.2207
997007,0.897,-0.0356,0.3783,-7.9346,1.0986,-0.1221
997027,0.9918,-0.0295,0.3528,-9.2773,3.0518,3.0518
997047,1.0813,-0.0178,0.3151,-14.5874,2.1973,7.7515
997071,1.0662,-0.0493,0.3353,-22.522,-0.9155,8.9722
997091,1.3552,-0.0314,0.3756,-23.9868,5.7983,10.9253
997111,1.2635,0.0706,0.4323,-16.4185,-9.0332,7.1411
997131,1.0842,0.1342,0.6702,-12.3291,-10.3149,4.8218
997151,1.095,0.2397,0.7242,-2.3804,-12.0239,4.0283
997191,0.798,0.275,0.7345,1.2207,-8.2397,3.2959
997211,0.7595,0.2158,0.7349,-10.1929,9.3994,5.249
997231,0.7826,0.1469,0.6527,-15.564,13.916,2.3804
997252,0.8601,0.1296,0.5896,-15.7471,10.498,-5.127
997272,0.8224,0.1564,0.5389,-7.5684,10.9863,-11.1084
997292,0.8177,0.1471,0.4481,-2.5024,7.9956,-15.5029
997312,0.7714,0.1239,0.4218,-2.5024,8.606,-15.7471
997336,0.7219,0.0952,0.3792,-5.0659,18.3105,-16.9678
997356,0.7382,0.0933,0.3486,-8.728,22.9492,-14.7095
997376,0.8014,0.1133,0.3032,-10.5591,25.2075,-9.2773
997399,0.8665,0.1201,0.282,-7.6294,18.0054,-5.4321
997419,0.8428,0.0889,0.2632,-4.6997,5.7983,-4.7607
997439,0.7991,0.079,0.2703,-2.0142,-4.8218,-4.9438
997459,0.7646,0.0854,0.2736,-1.0376,-6.0425,-5.9204
997479,0.7543,0.1018,0.2762,0.1221,-5.3711,-6.2256
997524,0.7937,0.1094,0.2827,6.6528,-4.5166,-5.4932
997544,0.7756,0.1079,0.3071,9.3384,-5.4321,-4.5776
997565,0.8168,0.0981,0.3228,10.0708,-4.2114,-3.9062
997585,0.8417,0.0823,0.3236,8.2397,-2.3193,-3.7842
997605,0.847,0.0819,0.3558,6.6528,-0.9766,-6.1035
997625,0.9508,0.0905,0.3179,5.9204,0.2441,-7.7515
997645,1.0127,0.0432,0.2692,0.9766,1.8311,-9.0942
997665,1.0189,0.0315,0.2815,-1.0986,-0.4883,-10.0708
997685,1.03,0.0759,0.3391,-0.4272,2.0142,-13.6719
997709,1.3282,0.1263,0.3418,6.6528,1.0376,-14.0381
997729,1.1812,0.015,0.4375,6.7139,-1.2207,-12.7563
997749,1.0006,-0.0541,0.5925,2.1973,0.4883,-13.2446
997769,1.0911,-0.1544,0.6647,0.7324,7.4463,-9.0942
997789,1.0151,-0.2151,0.6738,-4.6387,8.3008,-7.8125
997809,0.88,-0.175,0.6807,-4.1504,9.0942,-7.8735
997832,0.9255,-0.1091,0.6305,5.0659,11.1084,-3.9673
997853,0.946,-0.0475,0.5526,11.7798,7.019,0.1221
997873,0.9254,-0.0519,0.5006,13.5498,1.77,8.9722
997893,0.9539,-0.0609,0.4601,12.5122,-1.1597,13.7329
997913,0.9556,-0.0452,0.3953,11.5967,-1.4038,16.7847
997933,0.7966,-0.0597,0.3521,10.0098,-7.3853,17.8833
997953,0.7775,-0.0657,0.327,8.4229,-7.019,17.5781
997973,0.7859,-0.0713,0.2976,8.1787,-7.6904,17.334
997993,0.7621,-0.092,0.3088,7.2021,-10.376,17.0898
998034,0.6813,-0.0696,0.2937,4.2725,-18.0664,15.0146
998054,0.7041,-0.0651,0.2905,3.2349,-18.2495,12.6953
998074,0.7192,-0.066,0.2949,1.77,-19.7144,10.8643
998094,0.7344,-0.0576,0.2983,0.061,-16.5405,8.1787
998118,0.7755,-0.0809,0.3062,-2.9297,-12.6343,4.6387
998138,0.7985,-0.0889,0.3208,-7.8125,-10.376,-0.3052
998158,0.7897,-0.0906,0.3417,-10.6812,-11.4746,-1.8921
998181,0.8065,-0.0674,0.3486,-13.0005,-6.7139,-2.4414
998201,0.8173,-0.0173,0.3722,-12.146,-3.54,-1.5259
998221,0.8956,-0.0079,0.373,-11.4746,-3.7231,2.6855
998241,0.9904,-0.0096,0.3625,-11.9019,-5.9814,5.5542
998261,0.9983,-0.0424,0.3479,-16.6626,-8.728,7.3853
998302,1.2166,-0.0211,0.457,-26.4893,0.1221,6.5918
998322,1.2047,0.0559,0.4839,-23.9258,-2.5635,4.7607
998342,1.0432,0.0764,0.6615,-22.2168,-9.7046,1.8311
998362,1.0724,0.1173,0.7214,-18.5547,-8.4229,1.77
998382,0.9366,0.1711,0.7607,-15.5029,-9.9487,-0.9155
998402,0.7814,0.1754,0.7599,-14.9536,-4.8218,-2.0752
998422,0.795,0.1577,0.7628,-23.4985,8.4839,-2.1973
998442,0.8666,0.1355,0.6735,-28.8086,7.5684,-5.0049
998462,0.8575,0.1222,0.627,-28.5645,4.4556,-13.1226
998482,0.8376,0.1432,0.5778,-26.7944,2.6245,-14.7095
998502,0.848,0.1583,0.5206,-20.874,2.0752,-19.043
998522,0.7819,0.2015,0.4708,-17.7002,10.9253,-21.6675
998542,0.7535,0.209,0.4568,-15.3198,13.0005,-20.5078
998562,0.7072,0.1765,0.4156,-12.8174,13.6108,-18.7988
998582,0.7205,0.1569,0.3706,-7.9956,15.1978,-13.7329
998602,0.7184,0.1375,0.3453,-4.5776,15.686,-11.4136
998622,0.7118,0.1189,0.3223,-1.1597,10.1318,-8.1787
998642,0.704,0.1013,0.3119,0.9766,2.5635,-7.3853
998665,0.6788,0.0856,0.2921,2.1362,-0.6104,-6.3477
998685,0.6957,0.0944,0.2986,2.9297,3.418,-4.5776
998705,0.7091,0.0819,0.306,3.9062,4.6387,-2.8687
998725,0.7305,0.0828,0.3107,3.9673,5.5542,-2.4414
998745,0.7971,0.0623,0.3185,3.9673,4.2114,-2.0752
998765,0.8602,0.0775,0.3215,3.9673,2.5024,-2.3193
998785,0.8777,0.088,0.3281,4.2725,-0.5493,-2.7466
998805,0.9084,0.1012,0.3856,4.5166,-1.1597,-3.54
998825,1.0029,0.1177,0.3517,5.188,-1.0986,-3.418
998845,1.0754,0.1134,0.3367,7.6294,-2.6855,-3.7842
998865,1.0441,0.1145,0.3341,9.0942,-1.9531,-4.6387
998885,1.0348,0.1216,0.3651,10.6201,1.5259,-6.4697
998905,1.2511,0.1224,0.3909,13.1226,2.8687,-6.1646
998925,1.1195,0.0454,0.3981,14.7705,-4.2725,-6.897
998945,1.0674,-0.0244,0.5532,14.3433,-1.4038,-7.5073
998968,1.1211,-0.085,0.5514,10.8032,-3.3569,-6.7139
998988,0.8839,-0.2095,0.608,5.6152,-5.3711,-7.8125
999051,0.9576,-0.0493,0.5365,13.1226,-16.0522,-3.3569
999114,0.8328,-0.1073,0.5267,7.0801,-26.4282,9.8267
999138,0.7411,-0.0989,0.5339,7.019,-26.4282,10.2539
999158,0.7163,-0.0985,0.5181,8.3618,-21.9727,8.4229
999178,0.6907,-0.1112,0.4744,5.9814,-10.498,8.1177
999198,0.76,-0.106,0.4548,2.2583,-6.7139,7.8735
999218,0.7167,-0.1002,0.4279,-0.8545,-6.4087,8.606
999238,0.7415,-0.0934,0.389,-5.7983,-3.6621,6.897
999261,0.7184,-0.0851,0.3501,-7.8125,-7.4463,8.1177
999281,0.6863,-0.0953,0.3413,-9.4604,-10.5591,5.0049
999302,0.6466,-0.0988,0.3335,-11.9019,-11.0474,2.8687
999322,0.6581,-0.1031,0.3293,-11.2915,-13.2446,1.77
999342,0.657,-0.0858,0.3628,-9.6436,-10.0098,-0.6104
999362,0.723,-0.0576,0.3859,-7.1411,-7.6904,-1.2207
999384,0.7797,-0.0074,0.3942,-2.7466,-7.3242,0.9155
999405,0.8616,-0.0179,0.4454,0.6714,-2.1973,5.7983
999425,0.9463,-0.0392,0.4077,-0.7324,-1.2817,10.1318
999449,0.9717,-0.0619,0.421,-8.5449,-8.2397,13.3667
999469,1.0571,-0.0654,0.5127,-14.2822,-7.9956,11.2915
999489,1.3146,-0.0475,0.5029,-16.7236,-3.7231,13.5498
999511,1.1587,0.0453,0.5946,-8.8501,-22.0947,9.5215
999531,1.088,0.1119,0.8046,-4.6997,-24.4751,8.1177
999551,0.9178,0.2345,0.8605,3.2959,-30.5786,7.6294
999571,0.7335,0.2653,0.8706,7.2632,-29.9072,6.958
999591,0.6443,0.2341,0.8641,6.8359,-18.8599,8.606
999611,0.6277,0.1837,0.8264,-0.6714,-4.1504,8.8501
999631,0.7512,0.1172,0.7458,-7.019,2.3193,3.7231
999651,0.7743,0.0933,0.7358,-7.6904,3.2959,-2.3193
999671,0.7887,0.1217,0.6696,-1.4038,0.1221,-10.437
999691,0.7778,0.1002,0.6534,0.3662,1.0376,-14.0381
999712,0.7615,0.1017,0.6429,-1.9531,2.6245,-14.4043
999732,0.6906,0.0955,0.6176,-2.1362,-5.6152,-15.1978
999756,0.6587,0.075,0.5946,-4.4556,1.4648,-14.5264
999776,0.6572,0.0769,0.5433,-5.7373,8.5449,-11.2915
999796,0.642,0.0759,0.5179,-5.0659,6.7139,-9.5215
999816,0.625,0.0724,0.483,-4.6997,6.1035,-8.606
999836,0.6062,0.0769,0.439,-4.6997,7.9346,-8.3618
999856,0.6228,0.0864,0.4199,-3.54,9.9487,-8.1787
999876,0.6609,0.099,0.4172,-1.5869,10.6812,-7.9956
999896,0.687,0.094,0.4177,0.9766,4.7607,-7.4463
999916,0.6699,0.075,0.4296,2.0142,4.0283,-5.9204
999937,0.6565,0.0748,0.453,2.1973,5.7983,-3.7231
999957,0.6798,0.0798,0.4886,2.2583,6.2866,-2.2583
999977,0.6892,0.0688,0.5026,-0.061,9.2773,-1.77
999997,0.7439,0.0698,0.5007,-1.3428,12.207,-2.6245
1000019,0.8622,0.0682,0.4785,-2.9297,16.3574,-3.9673
1000039,0.9688,0.0868,0.451,-3.1128,13.1836,-7.5073
1000059,1.0492,0.1104,0.4877,-0.4272,14.3433,-10.5591
1000079,1.3379,0.0975,0.4277,2.8076,16.5405,-11.7798
1000102,1.1472,0.0118,0.5637,1.4648,0.4883,-12.207
1000122,1.1383,-0.0515,0.6962,-1.5259,-1.8921,-10.3149
1000142,1.0522,-0.177,0.7228,-6.4697,-4.1504,-8.728
1000162,0.8723,-0.2407,0.7345,-10.9863,-4.5776,-9.8877
1000182,0.7341,-0.1807,0.7526,-9.5825,-1.3428,-9.7656
1000202,0.7661,-0.0807,0.7358,1.0376,2.0142,-3.7842
1000222,0.8137,-0.0557,0.6532,7.2021,2.8076,1.709
1000242,0.7916,-0.0562,0.632,10.9863,-4.3945,7.9346
1000262,0.7875,-0.0815,0.6075,7.0801,-2.9297,10.9253
1000282,0.8798,-0.0891,0.5366,2.5024,-1.2207,11.8408
1000306,0.8038,-0.0684,0.5167,0.1221,-1.4648,10.9253
1000326,0.7471,-0.0546,0.5112,1.9531,-1.0376,11.0474
1000346,0.7249,-0.0498,0.4976,2.2583,-0.3662,11.1084
1000370,0.6993,-0.0552,0.4653,3.6621,1.2817,10.437
1000390,0.6868,-0.0471,0.436,2.2583,3.2349,10.6812
1000410,0.6936,-0.0405,0.415,0.061,1.8311,9.6436
1000430,0.6973,-0.0481,0.4042,-0.5493,0.8545,7.6904
1000472,0.6801,-0.0641,0.3782,-2.6245,-7.0801,0.8545
1000492,0.6617,-0.0814,0.4098,-4.2725,-3.418,-1.0986
1000512,0.6715,-0.1139,0.4169,-6.5918,0.4272,-1.2817
1000532,0.7539,-0.1075,0.427,-7.9346,4.3335,-0.8545
1000552,0.8202,-0.0753,0.3987,-7.2632,6.4087,-0.1831
1000572,0.8406,-0.0474,0.431,-5.249,3.479,1.3428
1000592,0.9263,-0.0416,0.4183,-5.6763,5.7373,2.9297
1000612,0.9576,-0.0422,0.4244,-8.5449,6.6528,5.188
1000632,0.9523,-0.0504,0.4658,-13.7329,4.0894,7.9346
1000652,1.0784,-0.0402,0.5687,-15.9302,8.728,8.2397
1000672,1.2946,0.0092,0.498,-15.3809,10.376,9.2773
1000692,1.0549,0.116,0.7062,-7.9346,-6.4087,6.3477
1000712,1.1417,0.1567,0.7747,-2.3193,-5.0049,7.6904
1000732,0.963,0.1943,0.7952,3.2959,-13.7329,8.8501
1000752,0.7777,0.179,0.8156,2.3804,-8.1787,6.4087
1000774,0.6868,0.1234,0.7169,-5.3711,0.8545,5.0049
1000795,0.705,0.0898,0.7107,-13.3057,6.5918,2.3193
1000815,0.7876,0.0701,0.631,-18.3716,8.5449,-4.2725
1000835,0.8035,0.0884,0.6143,-15.4419,4.6997,-10.9253
1000855,0.7827,0.1167,0.6061,-10.0098,1.1597,-15.8081
1000875,0.7418,0.1306,0.5905,-7.2021,4.7607,-18.1274
1000895,0.7405,0.1243,0.5758,-7.9346,13.7939,-16.6626
1000915,0.7388,0.1255,0.5605,-7.6294,11.5356,-14.4653
1000939,0.73,0.1085,0.5194,-5.7373,6.6528,-12.8784
1000959,0.6821,0.0822,0.4629,-3.8452,7.2632,-8.8501
1000979,0.6714,0.0692,0.4199,-1.3428,6.6528,-7.1411
1000999,0.6532,0.0551,0.3934,-0.9155,6.1646,-6.4087
1001021,0.6515,0.0559,0.3617,0.2441,5.4932,-5.9814
1001041,0.6709,0.0692,0.3447,3.3569,0.4272,-4.0283
1001061,0.7073,0.0522,0.3475,3.1738,2.1973,-1.9531
1001081,0.7089,0.0378,0.3597,1.9531,3.3569,-1.709
1001101,0.7389,0.0725,0.3627,0.9155,4.3335,-1.2207
1001121,0.7644,0.0961,0.3514,1.8921,2.0142,-2.0142
1001141,0.7976,0.0831,0.3801,1.4648,2.9907,-1.8311
1001161,0.8647,0.0879,0.4341,1.77,3.7231,-1.709
1001182,0.9156,0.1169,0.4384,4.7607,3.6621,-3.7231
1001202,1.0002,0.1246,0.4175,6.7139,1.2817,-7.3242
1001223,1.0341,0.1,0.4014,4.6997,0.7935,-8.4839
1001243,1.0679,0.1147,0.4774,5.4321,3.6621,-14.4653
1001266,1.2628,0.1033,0.475,11.5967,-0.3052,-13.0615
1001286,1.0215,-0.0164,0.5948,11.2915,-8.4229,-12.5732
1001306,1.0358,-0.0709,0.7261,11.3525,-6.6528,-10.6812
1001326,0.9626,-0.1854,0.7701,8.9722,-6.4697,-3.9673
1001346,0.7916,-0.2562,0.7721,1.0986,-4.7607,-3.1128
1001366,0.7645,-0.2308,0.8011,0.5493,-0.5493,-3.54
1001386,0.8616,-0.1196,0.7456,9.0942,7.9956,2.9297
1001406,0.859,-0.0831,0.6881,21.1792,4.8218,7.5073
1001428,0.8114,-0.1005,0.6841,23.6206,4.6997,11.1084
1001448,0.8181,-0.1068,0.65,19.6533,12.3291,17.5781
1001468,0.816,-0.1017,0.5656,18.0054,15.9302,20.1416
1001491,0.7548,-0.0914,0.506,15.3198,21.2402,21.7896
1001511,0.6914,-0.064,0.4193,11.5967,24.1699,23.1323
1001531,0.7052,-0.0658,0.3661,10.5591,26.4282,23.4375
1001551,0.7393,-0.0759,0.3267,7.1411,22.583,23.8037
1001574,0.724,-0.0519,0.3186,7.1411,13.6719,23.1323
1001634,0.7434,-0.0603,0.2565,1.2207,-4.2114,7.9346
1001654,0.7563,-0.0759,0.2568,0.3662,-9.1553,3.1738
1001674,0.769,-0.1002,0.2904,-5.127,-9.7656,-0.4272
1001694,0.7944,-0.0867,0.3307,-8.606,-7.019,-0.9155
1001716,0.8148,-0.0624,0.3483,-9.0332,-8.3008,-1.0376
1001736,0.8567,-0.0449,0.3792,-7.6294,-7.5073,-0.6714
1001758,0.8708,-0.0588,0.381,-8.2397,-6.1035,0.5493
1001778,0.9824,-0.05,0.3732,-14.0381,-0.4272,1.6479
1001798,1.0616,-0.0175,0.3701,-16.6016,-4.8218,3.2959
1001818,1.0468,-0.0081,0.3724,-19.7144,-7.6294,3.7842
1001838,1.0992,-0.0354,0.4927,-21.1182,-6.1035,5.0049
1001858,1.2426,0.0441,0.4866,-20.6299,-0.4272,6.7139
1001878,1.0128,0.0797,0.6742,-15.9912,-12.3901,2.7466
1001898,1.0409,0.0786,0.7019,-16.6016,-3.54,3.6621
1001918,0.8918,0.1875,0.7469,-14.9536,-4.9438,2.5635
1001938,0.7938,0.2305,0.7911,-11.7188,-4.9438,1.709
1001958,0.7904,0.2218,0.7388,-13.9771,1.4038,1.5259
1001978,0.8361,0.175,0.7339,-18.2495,1.8311,-0.2441
1001998,0.8164,0.1338,0.6854,-18.9819,1.2817,-8.5449
1002018,0.8054,0.1405,0.6666,-16.4795,1.8311,-13.4277
1002038,0.8022,0.1442,0.5869,-13.916,1.5259,-15.9302
1002058,0.7972,0.1406,0.5497,-12.5732,6.7749,-18.0054
1002082,0.8081,0.1072,0.4827,-12.3901,15.3809,-18.9819
1002102,0.7509,0.0974,0.4346,-10.8032,12.6343,-20.4468
1002122,0.7343,0.092,0.4125,-9.8267,14.7705,-19.2261
1002142,0.7383,0.1052,0.3717,-7.5684,15.3809,-16.8457
1002162,0.7151,0.1201,0.3292,-2.8687,14.2822,-14.5874
1002182,0.6912,0.1056,0.3018,0.3662,10.9863,-12.0239
1002202,0.6796,0.0731,0.2878,0.8545,7.7515,-9.5825
1002222,0.6752,0.0664,0.2831,0,5.0049,-7.6904
1002244,0.6914,0.0571,0.2729,-2.3193,4.5776,-6.0425
1002264,0.7469,0.0748,0.2737,-2.0752,3.2959,-5.249
1002287,0.795,0.0723,0.303,-2.0142,3.6621,-4.8218
1002307,0.8423,0.0686,0.324,-2.3193,2.0752,-5.127
1002329,0.8859,0.0814,0.3438,-1.5259,-0.4272,-6.1035
1002349,0.9072,0.1104,0.3914,0.6104,-1.4038,-7.6294
1002369,0.9779,0.1459,0.3704,3.0518,-1.2207,-8.3618
1002389,1.0498,0.125,0.3475,3.7231,-1.3428,-9.7046
1002409,1.0295,0.0995,0.3293,2.3804,-1.5259,-11.1084
1002429,1.1909,0.1117,0.4103,4.3945,1.8311,-15.3198
1002449,1.3108,0.0591,0.3577,5.3101,-0.061,-15.625
1002472,1.0601,-0.053,0.6135,5.6763,-9.8267,-19.043
1002492,1.1572,-0.1008,0.6738,4.8218,-4.4556,-13.9771
1002512,1.1512,-0.1825,0.6938,0.7935,-8.8501,-11.4746
1002532,0.8287,-0.2777,0.7269,-3.6621,-6.3477,-12.4512
1002592,0.8352,-0.0549,0.585,10.1318,0.6714,3.0518
1002612,0.8208,-0.0745,0.5322,17.8833,-0.7324,12.146
1002632,0.8168,-0.0823,0.5137,16.1133,1.4038,16.7236
1002653,0.8068,-0.0907,0.481,13.9771,5.0659,18.9209
1002673,0.7653,-0.1047,0.4585,12.3901,9.0942,19.7754
1002693,0.7659,-0.105,0.4359,8.9111,8.3618,18.9819
1002713,0.7607,-0.0995,0.3965,8.2397,5.6152,17.6392
1002733,0.7371,-0.1066,0.377,5.9814,-1.4038,16.5405
1002754,0.7177,-0.1067,0.3436,3.2959,-3.2959,15.3809
1002775,0.6759,-0.1086,0.3257,1.0986,-3.7842,14.0991
1002795,0.7188,-0.1041,0.3019,-3.54,-2.3193,8.7891
1002815,0.7222,-0.0919,0.3171,-5.0049,-7.1411,5.9204
1002835,0.6758,-0.0955,0.303,-5.188,-13.5498,2.9297
1002855,0.7051,-0.1079,0.3401,-7.9956,-7.6294,-2.1362
1002875,0.7157,-0.1091,0.3667,-9.1553,-5.6152,-2.0142
1002895,0.7579,-0.1302,0.3956,-8.9722,-0.7324,-0.6714
1002915,0.802,-0.09,0.3901,-9.0332,0.2441,0.8545
1002935,0.8456,-0.0513,0.394,-8.0566,1.0986,2.2583
1002955,0.9347,-0.0541,0.3922,-10.6812,4.5776,4.0283
1002975,1.0461,-0.0669,0.3601,-15.0146,2.1973,6.2256
1002995,1.0294,-0.0675,0.3729,-19.3481,0.6714,7.9956
1003015,1.1849,-0.0728,0.4908,-23.8647,5.188,9.2773
1003035,1.3352,-0.0142,0.4395,-24.4141,9.7656,10.0708
1003055,1.1156,0.0651,0.6451,-19.4702,-4.6997,5.4932
1003075,1.1812,0.111,0.7004,-16.0522,-1.6479,4.5776
1003095,1.0682,0.176,0.6836,-12.2681,-6.4087,3.6011
1003115,0.7748,0.2162,0.7483,-9.5215,-4.2114,3.7231
1003139,0.7111,0.1938,0.663,-15.9912,7.019,5.5542
1003159,0.7512,0.1436,0.6284,-19.043,11.3525,2.8076
1003179,0.8398,0.1134,0.5653,-20.1416,14.7095,-5.7983
1003199,0.8788,0.1388,0.5015,-14.7095,6.0425,-28.3203
1003220,0.8688,0.1371,0.4786,-8.5449,0,-18.3716
1003240,0.8097,0.1276,0.4425,-6.7749,0,-18.7988
1003260,0.7719,0.1082,0.4369,-9.6436,12.6953,-19.2261
1003280,0.7716,0.1072,0.4116,-8.4839,4.5776,-19.043
1003300,0.7721,0.1082,0.3981,-7.3853,1.6479,-14.2212
1003320,0.7443,0.1169,0.3759,-4.5166,-0.4883,-8.2397
1003340,0.7131,0.1254,0.3357,1.4648,-1.0376,-5.0049
1003360,0.7507,0.109,0.3062,3.6011,0.7935,-2.6245
1003380,0.738,0.0742,0.2998,6.2256,-3.2349,-1.3428
1003400,0.7079,0.0642,0.3057,6.7749,-5.4932,-1.709
1003420,0.7351,0.0688,0.3268,7.3853,-3.54,-0.7935
1003440,0.7618,0.0646,0.3406,8.5449,-1.4038,-0.3052
1003462,0.7723,0.0565,0.3636,9.0332,-0.6104,-0.061
1003482,0.8241,0.0801,0.3689,11.7188,-2.9907,1.0986
1003502,0.8314,0.0809,0.3784,11.9019,-6.1035,1.6479
1003522,0.8416,0.0657,0.4094,11.5356,-2.6245,1.0376
1003542,0.9991,0.0798,0.3933,11.3525,-0.061,0.6104
1003562,1.0203,0.0723,0.3778,11.8408,0.4272,-0.4883
1003584,1.0275,0.0486,0.3405,11.4136,-0.3662,-2.7466
1003604,1.0389,0.0854,0.3983,12.4512,3.479,-9.2773
1003624,1.3002,0.1085,0.3253,15.8691,2.8687,-10.376
1003644,1.068,0.0151,0.4269,18.2495,-6.8359,-13.0005
1003664,1.0587,-0.0248,0.5837,16.2964,0.4883,-12.2681
1003684,1.104,-0.068,0.6166,15.2588,1.2817,-9.1553
1003704,1.0085,-0.157,0.6577,11.2915,-1.2207,-4.4556
1003726,0.8341,-0.2019,0.6653,7.7515,4.2725,-3.479
1003786,0.89,-0.1093,0.5497,20.813,1.1597,7.9346
1003810,0.8156,-0.1461,0.522,21.3013,-0.7935,14.2822
1003830,0.7997,-0.1368,0.5016,19.8975,-0.7935,16.5405
1003850,0.7855,-0.1088,0.4502,20.5078,-1.4648,17.8223
1003870,0.7551,-0.1139,0.4199,20.5078,-0.9766,18.0054
1003890,0.7356,-0.1174,0.3958,20.5078,1.8311,16.2354
1003913,0.7435,-0.1382,0.373,20.0195,0.4272,16.1133
1003933,0.7377,-0.1521,0.3571,17.8223,-2.1362,16.7236
1003953,0.7404,-0.1514,0.3477,14.8926,-6.5918,19.7144
1003973,0.7228,-0.1497,0.3453,9.9487,-2.8687,18.4326
1003993,0.7339,-0.1271,0.3164,9.7046,-7.4463,15.9302
1004013,0.7393,-0.1257,0.3073,9.3994,-11.5967,15.2588
1004033,0.7324,-0.1349,0.3108,7.2632,-10.1929,14.5874
1004053,0.7247,-0.1342,0.3112,5.8594,-9.7656,12.5122
1004073,0.7228,-0.1385,0.3245,2.1362,-5.127,10.437
1004093,0.7787,-0.1328,0.3486,-0.7935,-1.8921,10.2539
1004113,0.8862,-0.08,0.3431,-1.6479,0.7324,10.7422
1004133,0.9169,-0.0516,0.3589,-0.5493,-0.6104,11.6577
1004153,1.0208,-0.0575,0.3624,-0.7324,-1.9531,12.2681
1004173,1.1194,-0.0573,0.3417,-2.6855,-4.8218,12.7563
1004193,1.0907,-0.0616,0.3604,-6.1035,-12.8784,11.9629
1004213,1.0634,-0.0731,0.3837,-8.2397,-14.2822,11.3525
1004234,1.3113,-0.0577,0.4805,-11.2915,-11.8408,13.0615
1004254,1.1516,0.0161,0.5365,-6.6528,-16.9067,13.916
1004274,0.9597,0.0496,0.6519,-6.5308,-18.7988,10.9253
1004294,0.8574,0.1241,0.7145,-6.5308,-7.6294,7.8735
1004314,0.8575,0.2318,0.7781,-2.5635,-4.9438,7.0801
1004334,0.8569,0.2633,0.7443,0.7935,-10.7422,10.376
1004357,0.8146,0.1742,0.767,-4.5166,-9.2163,11.0474
1004377,0.801,0.0815,0.7136,-5.6152,-6.2256,5.3101
1004397,0.8345,0.1045,0.6793,-5.3711,-7.2632,-2.4414
1004417,0.8354,0.1049,0.6331,-2.5635,-4.7607,-5.7983
1004437,0.8165,0.0859,0.536,-1.77,-1.2817,-8.3618
1004457,0.783,0.0874,0.501,-2.5024,-6.5308,-12.3901
1004477,0.6923,0.088,0.4612,-2.5635,-9.3384,-11.9629
1004497,0.6666,0.0686,0.4205,-3.0518,-5.249,-9.2163
1004517,0.6786,0.0698,0.405,-3.0518,0.061,-7.4463
1004537,0.6681,0.0778,0.376,-0.9155,-0.9766,-5.6763
1004557,0.6682,0.0665,0.3557,2.0142,-7.7515,-4.6997
1004577,0.5995,0.0869,0.3925,3.9673,-9.2773,-4.6997
1004597,0.5861,0.0867,0.3845,5.249,-4.6387,-3.8452
1004617,0.6301,0.0939,0.3997,8.3008,-6.2866,-2.5024
1004639,0.6897,0.1091,0.3827,11.3525,-5.9204,-1.2207
1004659,0.7267,0.0967,0.4171,11.9629,-2.0142,0.3662
1004679,0.7479,0.0959,0.446,13.0615,-2.5024,-0.2441
1004699,0.7826,0.1134,0.5029,15.564,-0.9766,-2.0752
1004719,0.8499,0.1257,0.4861,16.6016,3.479,-2.3804
1004739,0.9092,0.1061,0.4811,18.9209,7.6294,-3.8452
1004759,1.0059,0.1025,0.4406,18.3716,8.4229,-4.8218
1004781,1.0203,0.1139,0.5315,22.3999,6.2256,-8.1177
1004801,1.2733,0.0903,0.5568,26.4282,6.897,-7.2632
1004821,1.116,-0.082,0.6653,25.0854,-1.5869,-5.4932
1004841,1.0114,-0.1827,0.8436,20.752,0,-6.3477
1004861,1.0634,-0.2806,0.8169,15.686,3.0518,-2.6855
1004881,0.8807,-0.333,0.8085,5.3101,6.2866,-5.3711
1004902,0.7605,-0.2416,0.7839,3.3569,15.1367,-4.2725
1004922,0.8123,-0.1714,0.7482,8.606,23.3154,-0.6104
1004942,0.885,-0.1316,0.6719,14.5874,20.9961,4.3335
1004962,0.8403,-0.1378,0.6273,16.4795,10.5591,11.4746
1004982,0.8422,-0.1205,0.592,11.7798,10.8643,18.1885
1005002,0.806,-0.0918,0.5055,9.7656,11.3525,20.4468
1005022,0.741,-0.0861,0.4739,8.9111,11.9019,20.5688
1005042,0.6871,-0.0721,0.4453,9.0942,12.4512,21.8506
1005062,0.6794,-0.0541,0.399,10.6201,11.4136,21.6064
1005083,0.6571,-0.0679,0.3702,11.7798,8.3618,21.7896
1005103,0.6741,-0.0795,0.3218,9.5215,10.0098,21.0571
1005123,0.6779,-0.0745,0.3031,9.6436,2.1362,19.4702
1005143,0.6511,-0.0774,0.302,8.667,4.7607,16.1133
1005163,0.7261,-0.092,0.2899,5.6152,-1.8311,12.0239
1005183,0.6967,-0.0907,0.3138,6.2866,-6.4087,10.376
1005203,0.6974,-0.124,0.329,3.8452,-6.4697,10.0098
1005223,0.6914,-0.1498,0.3762,-0.3662,-4.4556,8.8501
1005243,0.7023,-0.1254,0.3998,-0.061,1.0986,6.8359
1005264,0.8708,-0.0236,0.3923,2.5635,6.3477,6.897
1005284,0.9305,-0.0012,0.3802,5.7983,2.4414,9.0942
1005305,0.979,-0.056,0.3984,4.1504,0.1221,11.8408
1005325,1.0714,-0.0704,0.3776,-3.8452,4.3335,14.7705
1005345,1.0784,-0.0911,0.4243,-9.4604,6.3477,14.9536
1005365,1.302,-0.0372,0.4951,-14.1602,7.7515,14.2822
1005385,1.2258,0.09,0.5729,-9.6436,2.5635,14.8926
1005405,0.9871,0.1046,0.7679,-6.7139,-6.3477,10.8032
1005425,1.0381,0.1458,0.7246,-6.0425,-0.3052,9.3994
1005445,0.9021,0.1917,0.7777,-2.9907,0.8545,6.2256
1005465,0.7748,0.1952,0.7798,-3.418,5.3101,5.188
1005485,0.8593,0.1829,0.7271,-8.5449,14.8315,1.5259
1005505,0.8608,0.0706,0.6349,-14.9536,8.4229,-2.5635
1005525,0.8038,0.0515,0.6432,-20.3247,7.6294,-12.6343
1005545,0.8167,0.0721,0.5988,-18.1274,11.7188,-15.7471
1005565,0.8604,0.1097,0.5149,-16.5405,11.2915,-18.6768
1005585,0.8141,0.1118,0.4681,-14.7095,7.8735,-20.3857
1005605,0.7719,0.1025,0.4426,-14.3433,5.127,-20.2637
1005625,0.7404,0.0774,0.405,-14.8315,6.4087,-18.1274
1005646,0.7357,0.0723,0.375,-15.564,6.958,-13.0005
1005666,0.6887,0.074,0.3492,-14.3433,9.8877,-8.5449
1005686,0.6761,0.0851,0.3188,-12.5732,10.376,-7.3242
1005706,0.6769,0.0918,0.2719,-6.3477,6.4087,-8.606
1005726,0.6685,0.094,0.2716,-3.3569,0.2441,-8.5449
1005746,0.715,0.1145,0.2577,-2.7466,-2.8076,-6.4087
1005766,0.7262,0.1021,0.2593,-2.0752,-5.188,-4.5166
1005786,0.7462,0.1016,0.2681,-1.3428,-11.1694,-4.0283
1005806,0.8162,0.1134,0.297,-0.2441,-16.5405,-3.7842
1005826,0.8486,0.1173,0.3185,1.77,-19.5312,-3.54
1005848,0.9092,0.0955,0.3376,3.6011,-18.6768,-2.8076
1005868,0.9482,0.1235,0.3556,5.3711,-22.0947,-4.5166
1005888,0.9387,0.1128,0.4055,6.7139,-20.752,-6.2866
1005908,0.9846,0.0846,0.4276,7.2021,-14.4653,-8.1787
1005928,0.9768,0.0789,0.455,7.7515,-9.7046,-9.6436
1005948,1.1572,0.1511,0.6079,10.376,-0.1221,-9.2163
1005969,1.3086,0.1224,0.4814,14.5874,0.6714,-5.4932
1005989,0.98,-0.0231,0.7893,17.2729,-2.9907,-6.0425
1006009,1.126,-0.0776,0.771,16.3574,5.6152,-2.7466
1006029,1.0432,-0.1647,0.7739,10.8643,2.9907,-1.0376
1006049,0.864,-0.2355,0.7688,6.897,5.6763,-2.3193
1006070,0.8336,-0.1844,0.7142,8.3618,10.9253,-1.9531
1006090,0.8336,-0.1196,0.6687,14.0991,10.498,1.5869
1006110,0.828,-0.1079,0.6278,21.0571,4.5166,8.728
1006132,0.8051,-0.1083,0.609,21.3013,7.3242,13.7329
1006152,0.8363,-0.0905,0.5312,17.1509,10.7422,18.2495
1006172,0.7582,-0.0885,0.4717,16.3574,8.2397,19.104
1006192,0.7225,-0.0845,0.4453,15.8081,7.8125,18.3716
1006212,0.6974,-0.0785,0.4,16.2354,6.7139,17.2729
1006235,0.6835,-0.0785,0.3763,15.0757,7.2632,16.9067
1006255,0.6506,-0.1058,0.3656,11.2915,5.6152,16.4795
1006275,0.6598,-0.1226,0.3455,6.2866,8.5449,16.1133
1006295,0.697,-0.0922,0.3287,1.8311,11.9019,16.4795
1006315,0.7015,-0.0662,0.2998,1.8311,8.1787,14.2822
1006335,0.7408,-0.0568,0.2905,2.5024,-0.1831,9.8877
1006355,0.7452,-0.0427,0.2882,5.6152,-6.1646,9.8877
1006379,0.7062,-0.0934,0.3279,4.6997,-7.5684,9.2163
1006399,0.7893,-0.1399,0.3601,-2.4414,0.1221,8.4839
1006419,0.86,-0.123,0.3643,-5.188,6.0425,6.958
1006439,0.8909,-0.0568,0.3462,-2.2583,7.0801,4.0894
1006459,0.962,-0.0555,0.3566,-0.8545,7.6294,4.6997
1006479,1.0413,-0.05,0.3466,-2.1362,5.3101,7.8735
1006501,1.0548,-0.0254,0.3528,-6.8359,3.8452,12.9395
1006522,1.0413,-0.0499,0.3766,-13.6108,6.2256,14.7095
1006543,1.2623,-0.0414,0.4685,-17.2729,12.8174,14.4653
1006563,1.2638,0.0562,0.5011,-14.2212,9.8877,11.7188
1006583,1.1106,0.1294,0.7128,-8.4839,-3.1738,8.1787
1006603,1.1141,0.1906,0.6886,-5.3711,-0.7324,5.0049
1006623,0.955,0.2328,0.7109,-4.0894,-1.3428,4.0894
1006643,0.8568,0.1805,0.6378,-7.4463,1.5259,6.1035
1006665,0.8019,0.0919,0.6316,-19.8364,7.5684,3.7231
1006685,0.834,0.0597,0.5774,-22.8882,6.897,-3.1738
1006705,0.8495,0.0956,0.5446,-23.2544,5.0049,-10.0098
1006725,0.8881,0.135,0.4854,-17.0898,0.4883,-15.1367
1006745,0.8605,0.1348,0.4167,-13.3667,-2.3193,-19.104
1006766,0.782,0.1332,0.4005,-13.4888,-2.3193,-19.5923
1006786,0.7533,0.1245,0.3865,-13.855,-0.5493,-19.4702
1006806,0.7489,0.1224,0.3671,-13.1836,-1.2207,-17.2119
1006826,0.7323,0.1276,0.3453,-10.9863,-1.77,-13.6108
1006848,0.7032,0.1185,0.33,-8.8501,4.8218,-9.6436
1006868,0.6703,0.0985,0.3102,-4.3335,1.8311,-8.2397
1006889,0.6604,0.108,0.2988,-1.5869,-2.2583,-8.7891
1006909,0.6707,0.1276,0.2959,0.6714,-2.9297,-8.7891
1006929,0.6958,0.1259,0.3043,2.3193,-2.6245,-6.5918
1006952,0.7356,0.1169,0.3031,5.188,-2.9907,-2.9297
1006973,0.7482,0.1023,0.3196,7.1411,-7.0801,-1.9531
1006993,0.7852,0.0925,0.3239,7.8735,-9.8267,-1.9531
1007013,0.8619,0.0835,0.3275,7.019,-8.4839,-1.9531
1007033,0.9363,0.0874,0.3262,5.7983,-10.9253,-2.2583
1007055,0.9834,0.0967,0.3392,6.7139,-13.9771,-3.9673
1007075,1.0811,0.1031,0.332,6.5918,-15.564,-5.9814
1007095,1.0879,0.0955,0.3625,8.7891,-17.6392,-8.0566
1007115,1.1071,0.1029,0.3981,9.5215,-17.395,-9.5215
1007135,1.3695,0.1029,0.3542,13.0005,-18.0664,-8.3008
1007155,1.1378,0.0156,0.5554,14.4043,-27.4658,-10.0098
1007175,1.0808,-0.0725,0.672,13.9771,-29.0527,-10.5591
1007195,0.9148,-0.2147,0.7468,9.0332,-32.0435,-8.9111
1007215,0.7441,-0.2816,0.7684,-1.3428,-22.8882,-7.9956
1007235,0.7148,-0.1699,0.7837,-1.4038,-11.1084,-3.6621
1007255,0.8049,-0.0852,0.7516,5.4932,-7.9346,3.1128
1007275,0.8737,-0.0632,0.7079,16.2964,-18.5547,8.7891
1007296,0.8115,-0.1097,0.7412,14.6484,-25.0854,11.3525
1007316,0.802,-0.1224,0.7336,5.127,-18.1885,14.4043
1007336,0.7878,-0.1072,0.6895,3.7231,-16.2964,15.1978
1007356,0.7057,-0.071,0.6591,5.3101,-12.2681,14.2822
1007376,0.632,-0.0392,0.6298,7.0801,-3.7842,12.8784
1007396,0.641,-0.0331,0.553,8.3008,0.7324,12.7563
1007416,0.6316,-0.037,0.5067,5.4321,8.1787,11.4746
1007438,0.6335,-0.0186,0.4742,3.2349,13.0005,11.8408
1007458,0.6227,-0.0297,0.4304,-0.2441,17.0898,11.6577
1007479,0.6685,-0.0305,0.3911,-0.6104,15.1367,10.8032
1007499,0.6436,-0.0625,0.3636,-0.2441,4.8218,6.7749
1007519,0.6116,-0.0989,0.3928,-2.2583,6.5308,4.2725
1007539,0.6643,-0.1056,0.3798,-4.8828,9.6436,1.6479
1007559,0.6606,-0.0974,0.4304,-5.9814,10.2539,-0.1831
1007579,0.7214,-0.0605,0.4352,-6.7139,15.625,-0.1221
1007599,0.7949,-0.0283,0.4242,-4.6997,14.8926,0.6104
1007619,0.8425,-0.0361,0.4329,-1.2207,11.7798,2.3193
1007639,0.915,-0.0428,0.4103,-4.0283,11.0474,4.3335
1007661,1.0417,-0.0547,0.3829,-9.4604,8.667,7.019
1007681,1.0681,-0.0701,0.3922,-12.8174,3.479,8.1787
1007701,1.099,-0.0809,0.5055,-17.8223,1.5869,9.7656
1007721,1.2543,0.0028,0.46,-18.9209,1.1597,11.2915
1007742,1.1141,0.0571,0.6483,-13.855,-10.6201,10.0708
1007762,1.1218,0.0997,0.7572,-13.9771,-10.1318,10.1929
1007782,1.0135,0.1913,0.7589,-11.5967,-11.5356,8.2397
1007806,0.7507,0.2075,0.8265,-10.1318,-11.7188,3.54
1007826,0.703,0.151,0.7826,-18.6157,-0.9155,0.9155
1007846,0.7043,0.0933,0.7449,-25.0244,4.8828,-4.1504
1007869,0.7701,0.1206,0.6898,-28.5034,9.2773,-13.9771
1007889,0.7861,0.1554,0.6508,-21.9727,9.3994,-20.3247
1007909,0.8075,0.1788,0.5919,-18.4937,5.0659,-20.9351
1007929,0.7715,0.1808,0.5219,-17.9443,10.0708,-21.7285
1007949,0.7479,0.1499,0.4777,-16.9678,13.0615,-17.5781
1007969,0.7445,0.1421,0.4568,-15.2588,12.2681,-14.4653
1007989,0.7177,0.1396,0.4269,-12.6953,8.8501,-11.7798
1008009,0.7042,0.1343,0.387,-8.667,9.8877,-10.0708
1008029,0.7197,0.136,0.3599,-4.3945,4.1504,-8.4839
1008049,0.6971,0.1218,0.3512,-0.9155,2.1973,-8.1787
1008069,0.6409,0.1077,0.3246,2.1362,-1.77,-7.3853
1008089,0.6504,0.132,0.3175,4.5776,-1.6479,-4.9438
1008109,0.6936,0.1312,0.3406,6.2256,-1.8921,-2.9297
1008129,0.7068,0.1165,0.3438,8.728,-2.8076,-1.5259
1008152,0.7479,0.0841,0.3643,9.3384,0.4883,-1.0376
1008172,0.7478,0.095,0.3695,9.3384,1.77,-1.2207
1008192,0.7986,0.1155,0.3884,10.0098,1.6479,-1.2207
1008212,0.8429,0.1272,0.4073,14.0991,-1.1597,-1.709
1008234,0.8763,0.127,0.4143,17.1509,-0.9766,-2.9907
1008254,1.0093,0.0892,0.3927,16.8457,1.1597,-4.0283
1008274,1.0664,0.0718,0.3798,12.3291,4.0894,-5.9814
1008296,1.0935,0.0996,0.4883,13.4888,1.2207,-10.8643
1008316,1.2261,0.075,0.462,19.7754,1.8921,-11.4746
1008336,1.1688,-0.006,0.6429,19.2871,-4.9438,-15.686
1008356,1.0825,-0.074,0.6844,11.7798,-6.4087,-16.2964
1008377,0.9856,-0.1731,0.8411,4.3335,-6.4087,-15.8081
1008397,0.8263,-0.2537,0.7872,1.4038,-3.54,-13.9771
1008417,0.7712,-0.2152,0.8285,6.8359,1.709,-10.2539
1008437,0.8541,-0.1334,0.7783,14.6484,8.5449,-3.2959
1008457,0.8669,-0.1049,0.7422,21.1792,6.1646,5.9814
1008480,0.8623,-0.098,0.6963,21.1792,10.5591,13.6108
1008501,0.8947,-0.0912,0.6332,17.8223,16.8457,19.2261
1008521,0.8491,-0.0858,0.5376,15.564,16.3574,20.874
1008541,0.7607,-0.0781,0.4954,17.0288,14.6484,22.2778
1008562,0.7332,-0.0835,0.432,17.0288,16.0522,23.3154
1008582,0.7104,-0.1306,0.4,16.7847,6.1646,20.752
1008605,0.6857,-0.13,0.3698,14.8926,7.2021,21.4844
1008625,0.6667,-0.1146,0.3466,9.0332,9.3994,22.7051
1008645,0.6775,-0.0953,0.312,6.5918,7.9956,21.8506
1008667,0.7107,-0.0887,0.2803,5.3101,5.9204,19.5923
1008687,0.6912,-0.1002,0.2944,6.897,-6.2256,16.9067
1008707,0.6746,-0.1163,0.3055,3.6011,-4.4556,14.5874
1008727,0.6613,-0.1106,0.3131,0.5493,-5.6152,11.9019
1008747,0.6899,-0.095,0.3451,-1.709,-2.9907,11.1084
1008767,0.7612,-0.0547,0.3663,-3.8452,2.7466,11.0474
1008787,0.8542,-0.0327,0.3793,-1.1597,7.6904,12.6343
1008808,0.9569,-0.0559,0.3846,-1.3428,7.3853,14.8926
1008828,0.9877,-0.054,0.3973,-4.8828,5.127,14.5264
1008848,1.0664,-0.0376,0.3745,-8.0566,1.6479,13.6719
1008870,1.0452,-0.0476,0.366,-13.3667,-2.8687,15.0146
1008891,1.1737,-0.0687,0.4836,-20.4468,4.5776,15.2588
1008911,1.2859,-0.0049,0.421,-19.3481,0.1221,14.3433
1008931,1.0411,0.0315,0.6511,-17.2119,-8.5449,10.1929
1008951,1.0784,0.0869,0.6693,-17.8223,-7.9956,7.8125
1008971,1.0442,0.1896,0.6868,-16.9678,-9.8877,4.8218
1008994,0.8561,0.2817,0.7474,-14.3433,-16.8457,3.1128
1009014,0.7217,0.2504,0.717,-14.9536,-10.6812,3.9673
1009034,0.7349,0.2184,0.7034,-17.2729,-2.5024,-0.1221
1009054,0.7992,0.2069,0.6479,-18.4937,0.4883,-8.7891
1009075,0.7994,0.2351,0.62,-16.2354,1.2817,-14.1602
1009095,0.8489,0.2198,0.5551,-12.5122,3.8452,-20.2026
1009117,0.8416,0.1812,0.4587,-12.4512,5.0659,-21.3013
1009137,0.8009,0.141,0.4272,-12.6953,-0.4272,-23.1934
1009159,0.735,0.1047,0.4082,-13.916,0.3052,-21.4233
1009179,0.7245,0.1019,0.3783,-14.4043,5.127,-19.9585
