timestamp,ax,ay,az,gx,gy,gz
1777501,0.7979,0.0157,0.5648,0.8545,0.2441,0.9155
1777521,0.799,0.016,0.561,1.2207,0.5493,1.0376
1777545,0.7981,0.0154,0.5608,1.2207,0.6714,1.2207
1777565,0.7987,0.0151,0.5612,1.4038,0.4272,1.0986
1777585,0.8009,0.0145,0.5605,1.77,0.7324,1.1597
1777605,0.8042,0.0134,0.5586,2.0752,0.9155,1.0376
1777625,0.8041,0.0134,0.5548,2.1973,0.4272,1.0376
1777645,0.8025,0.0104,0.5554,2.5024,0.061,1.2817
1777668,0.8053,0.007,0.5552,2.4414,0.1221,1.2817
1777688,0.8075,0.0027,0.5554,2.1973,-0.4272,1.0376
1777708,0.8075,0.0015,0.558,1.8921,-0.7935,0.6714
1777728,0.8054,0.005,0.557,1.6479,-0.5493,0.4883
1777748,0.802,0.0009,0.5565,0.9766,-0.7935,0.4272
1777769,0.8027,0.0006,0.5598,0.6714,-0.9155,0.4272
1777789,0.8058,0.0062,0.5573,-0.1831,-0.9766,0.4883
1777809,0.8027,0.0116,0.5601,-0.061,-0.9155,0.3662
1777829,0.8027,0.0145,0.561,-0.3662,-0.8545,0.3662
1777849,0.8024,0.0161,0.5601,-0.1221,-0.9155,0.6104
1777869,0.8013,0.0156,0.5603,-0.3052,-0.9766,0.3052
1777889,0.7993,0.0159,0.5601,-0.3052,-1.1597,0.3052
1777911,0.798,0.0151,0.5599,-0.061,-1.1597,0.3052
1777931,0.7979,0.0188,0.5594,0.1221,-1.2817,0.3662
1777951,0.7977,0.0193,0.5598,0.2441,-1.4038,0.5493
1777971,0.7998,0.0183,0.5605,0.8545,-1.5259,0.7324
1777992,0.7994,0.0156,0.563,0.7935,-1.6479,0.8545
1778012,0.7986,0.017,0.5649,1.1597,-1.6479,0.9766
1778032,0.7955,0.0162,0.5685,1.2207,-1.4038,1.0376
1778054,0.799,0.016,0.5696,1.4648,-1.0376,0.9155
1778074,0.7988,0.0138,0.5667,1.3428,-0.7935,0.7935
1778094,0.7939,0.0146,0.5673,1.2207,-0.8545,0.7935
1778114,0.793,0.0162,0.568,1.4648,-0.9155,0.8545
1778137,0.7908,0.0154,0.5684,1.2817,-0.4883,0.7935
1778157,0.7917,0.0146,0.5674,0.7935,-0.5493,0.4883
1778179,0.7906,0.0095,0.5681,0.7935,-0.1831,0.0
1778199,0.7913,0.0063,0.5677,0.4272,0.4883,-0.3052
1778221,0.7957,0.006,0.5679,0.061,0.7935,-0.4272
1778241,0.7976,0.0049,0.5693,0.0,0.7324,-0.4272
1778261,0.7988,0.0032,0.5641,-0.3052,0.7324,-0.3662
1778281,0.8015,-0.0021,0.5559,-0.4883,1.0986,-0.4272
1778301,0.8092,-0.0013,0.553,-0.6714,1.5869,-0.4272
1778321,0.8116,0.0048,0.5543,-1.2817,0.9766,-0.4883
1778343,0.8081,0.0151,0.5529,-1.2207,0.1221,-0.061
1778363,0.8102,0.0184,0.5488,-0.6104,-0.3052,0.2441
1778384,0.816,0.0206,0.5491,-0.1831,-0.2441,0.3662
1778404,0.8176,0.0258,0.552,-0.1221,-0.6714,0.7324
1778424,0.8138,0.0265,0.5547,0.2441,-1.0986,0.6104
1778444,0.8063,0.0271,0.556,1.0376,-2.3193,0.9766
1778464,0.8024,0.0253,0.5583,1.5869,-2.8076,1.4648
1778484,0.7943,0.0221,0.5638,2.1973,-2.8076,1.5259
1778504,0.791,0.0205,0.5688,2.2583,-2.3804,1.9531
1778525,0.7909,0.0197,0.5691,2.4414,-2.1973,2.3804
1778548,0.7904,0.0173,0.5687,2.4414,-2.0142,2.3193
1778568,0.7903,0.0171,0.5693,2.3193,-2.0142,2.2583
1778588,0.791,0.0157,0.5704,2.3193,-1.5869,2.0142
1778608,0.7908,0.0131,0.571,2.1362,-1.6479,1.6479
1778628,0.7944,0.0117,0.5684,1.77,-1.0986,1.2817
1778651,0.7936,0.0076,0.5686,1.0376,-1.3428,1.1597
1778671,0.7919,0.0048,0.5759,0.9155,-1.3428,0.6104
1778691,0.7943,0.0078,0.5751,0.3662,-1.3428,0.6104
1778711,0.7926,0.0111,0.5737,-0.061,-1.3428,0.3052
1778732,0.7903,0.0044,0.5688,-0.2441,-0.7935,0.2441
1778752,0.795,0.0049,0.5662,-1.4038,0.5493,-0.3052
1778772,0.7992,0.0161,0.5656,-2.0142,0.4272,-0.4883
1778792,0.7982,0.0186,0.5586,-2.6245,0.2441,-0.5493
1778812,0.8047,0.0157,0.5577,-2.7466,0.1831,-0.7324
1778832,0.8196,0.017,0.5531,-3.1738,1.0376,-1.4648
1778852,0.8234,0.0232,0.5546,-3.3569,1.0376,-2.2583
1778872,0.8247,0.0278,0.5529,-3.2959,0.5493,-2.5635
1778894,0.8185,0.0312,0.5551,-3.0518,-0.5493,-2.6245
1778914,0.8099,0.0289,0.5551,-2.5635,-1.3428,-2.3193
1778934,0.809,0.0269,0.5601,-1.4038,-1.9531,-2.1973
1778954,0.8049,0.0261,0.5649,-0.6104,-2.6855,-2.1362
1778974,0.7939,0.0255,0.5668,0.0,-3.8452,-2.0142
1778996,0.7848,0.0231,0.5677,0.2441,-4.2725,-1.9531
1779016,0.7838,0.0123,0.5635,0.6714,-4.5776,-1.0986
1779036,0.783,0.0103,0.5696,0.4272,-5.0659,-0.9155
1779056,0.7828,0.0182,0.5742,0.0,-5.9814,-0.3662
1779076,0.7794,0.0225,0.5781,0.6714,-6.958,0.3662
1779096,0.7765,0.0234,0.5869,1.2817,-7.8125,0.7324
1779116,0.7759,0.0236,0.598,1.8921,-7.4463,1.2817
1779140,0.7783,0.027,0.6031,2.2583,-7.1411,1.6479
1779160,0.778,0.0282,0.6106,2.4414,-7.4463,1.3428
1779180,0.7755,0.0253,0.6101,2.5024,-6.958,1.1597
1779200,0.7725,0.0192,0.6099,2.5635,-7.3242,0.7935
1779220,0.7675,0.0071,0.6084,2.2583,-5.9814,0.4272
1779240,0.7665,0.0071,0.6064,2.0142,-6.7749,-0.2441
1779260,0.7484,0.0006,0.6034,1.8311,-6.0425,-0.5493
1779280,0.7518,0.0013,0.6062,1.2207,-3.6011,-0.1221
1779300,0.7501,0.0048,0.6101,1.0376,-3.9673,0.3662
1779320,0.7446,0.0076,0.6147,1.0376,-4.0283,0.6104
1779340,0.7472,0.0052,0.6141,0.4272,-1.8921,1.2207
1779363,0.7539,0.0099,0.6193,0.1831,-1.2207,1.3428
1779383,0.7565,0.0157,0.6179,0.061,-0.9766,1.4038
1779403,0.7574,0.0206,0.6161,0.1831,-0.9766,1.2207
1779423,0.7639,0.0194,0.6063,0.1221,0.1831,1.0376
1779443,0.77,0.0182,0.6021,0.3052,0.6104,0.9155
1779463,0.7795,0.016,0.5955,0.3052,1.0986,0.7935
1779483,0.7855,0.0165,0.5942,0.3052,0.7324,0.4272
1779503,0.7863,0.0161,0.5856,0.4272,-0.4272,0.1831
1779523,0.7878,0.0109,0.5784,0.7935,-0.7324,0.061
1779543,0.801,-0.0039,0.5659,0.5493,0.1831,-0.2441
1779563,0.8174,-0.001,0.5656,0.4883,1.2817,-0.7324
1779583,0.8252,0.0056,0.5721,0.0,-0.7935,-0.8545
1779605,0.8215,0.0131,0.5793,-0.061,-2.8687,-0.6104
1779625,0.808,0.0151,0.5864,0.2441,-6.5308,0.4272
1779645,0.7872,0.0184,0.6019,0.3052,-8.2397,1.3428
1779668,0.7563,0.0311,0.6224,0.4883,-10.2539,2.1362
1779688,0.74,0.035,0.6273,1.0986,-11.1694,2.3193
1779708,0.7217,0.0299,0.6313,1.709,-10.7422,2.1973
1779728,0.7205,0.0265,0.6327,2.2583,-8.2397,2.0142
1779748,0.7218,0.0237,0.6356,2.3804,-6.5308,1.6479
1779768,0.7262,0.0227,0.6377,2.7466,-6.4697,1.2207
1779788,0.7299,0.0187,0.6415,2.3193,-6.1035,0.9766
1779808,0.7349,0.0143,0.6462,2.3193,-4.6997,0.6104
1779828,0.7343,0.0098,0.6539,2.3193,-4.5776,0.6714
1779848,0.7303,0.0079,0.6587,1.9531,-5.9204,0.3052
1779868,0.717,0.0083,0.6626,1.5869,-4.0283,0.4272
1779891,0.7189,0.0076,0.6569,1.5869,-2.3193,0.5493
1779911,0.7212,0.0099,0.6537,1.0986,-1.2207,0.6104
1779932,0.7217,0.0068,0.652,0.9155,-0.8545,0.2441
1779952,0.7225,0.009,0.6465,0.1831,-0.061,0.0
1779972,0.7245,0.0079,0.6438,-0.4883,1.2207,-0.6714
1779992,0.7322,0.0098,0.6418,-0.4883,1.8921,-0.7324
1780012,0.7429,0.0173,0.6394,-0.1221,2.3804,-0.9766
1780032,0.746,0.0212,0.6392,0.5493,1.8311,-0.7324
1780052,0.7466,0.0221,0.6376,1.0376,1.77,-0.4883
1780072,0.7499,0.0126,0.6313,1.5259,1.5259,-0.061
1780096,0.7518,0.0121,0.6305,1.4038,1.8921,0.1831
1780116,0.7548,0.0131,0.6301,1.5259,1.4648,-0.1221
1780136,0.7559,0.01,0.6254,1.5259,0.9766,0.1221
1780157,0.7554,0.007,0.6224,1.77,0.7935,0.2441
1780177,0.7546,0.0071,0.6233,1.4648,0.1831,0.3052
1780198,0.7517,0.0063,0.6249,1.3428,0.1831,0.4272
1780218,0.7534,0.0068,0.6254,0.7324,-0.3662,0.6714
1780238,0.7517,0.0092,0.6262,0.3662,-0.4883,0.6714
1780258,0.7504,0.0114,0.6251,0.3052,-0.4883,0.4272
1780278,0.7515,0.0066,0.6263,0.4272,-0.2441,0.1831
1780298,0.749,0.0066,0.6294,0.4883,0.5493,0.1221
1780318,0.7427,0.0181,0.6409,0.6714,0.3052,-0.1221
1780338,0.7318,0.0327,0.6497,1.5869,0.7935,0.3662
1780358,0.728,0.0453,0.6458,2.7466,1.709,0.9766
1780381,0.7299,0.0338,0.6372,4.8828,2.8687,1.709
1780401,0.7357,0.0187,0.6327,5.4321,4.1504,1.8311
1780421,0.7642,0.0015,0.6238,4.6387,5.9814,1.2817
1780441,0.7676,-0.0039,0.6233,5.0049,2.2583,0.0
1780462,0.7633,-0.0068,0.623,5.0659,2.1973,0.9766
1780482,0.7549,-0.0042,0.6194,5.188,-0.1221,1.2817
1780502,0.7482,-0.0061,0.6235,4.0894,-0.3662,1.0376
1780522,0.7427,-0.0068,0.6234,3.3569,1.0986,1.3428
1780542,0.7473,-0.0033,0.6259,2.0142,2.3193,0.5493
1780563,0.751,-0.0007,0.6239,1.2817,2.8687,0.061
1780583,0.756,0.0022,0.6183,0.9155,3.0518,-0.2441
1780603,0.7609,-0.0009,0.6147,0.1221,2.9297,-0.3662
1780623,0.7649,-0.0066,0.6088,-0.8545,2.8687,-0.2441
1780643,0.7692,-0.0128,0.6047,-1.5259,2.5635,-0.3662
1780703,0.7788,0.0012,0.606,-3.54,0.7935,-0.6714
1780723,0.7788,0.0118,0.6033,-3.6011,0.3052,-0.5493
1780743,0.776,0.0083,0.6016,-3.3569,-0.5493,-0.1221
1780763,0.7734,0.0044,0.6025,-3.479,-0.7935,0.3052
1780783,0.7678,0.0035,0.6051,-3.6011,-1.4038,0.9155
1780803,0.7642,0.0078,0.6058,-3.6621,-1.3428,1.8311
1780823,0.7637,0.0183,0.6133,-2.9297,-1.0376,2.2583
1780843,0.7627,0.0254,0.6139,-1.0986,-0.9155,2.7466
1780863,0.7631,0.0297,0.6094,0.061,-1.4038,3.2349
1780885,0.7651,0.0289,0.6107,1.0376,-1.8921,3.6621
1780905,0.7682,0.0342,0.6136,1.8311,-1.8921,3.6011
1780925,0.7712,0.0361,0.6127,2.1973,-1.9531,3.2349
1780945,0.7631,0.0315,0.619,2.8076,-2.4414,2.7466
1780965,0.7548,0.0284,0.6263,3.7842,-0.7935,2.7466
1780985,0.755,0.0194,0.6184,4.5166,-0.7935,3.0518
1781009,0.751,0.0056,0.6132,3.6011,-1.2817,3.1738
1781029,0.752,0.0009,0.6122,2.5635,-1.6479,2.9907
1781049,0.7468,0.0039,0.6167,2.2583,-2.1362,2.3193
1781069,0.7484,0.0134,0.6161,1.6479,-0.9155,1.77
1781092,0.7504,0.017,0.6217,1.4648,-0.6714,0.7324
1781112,0.7488,0.0144,0.6224,1.1597,-0.6104,0.6714
1781132,0.7484,0.0142,0.6262,0.4883,-0.3052,0.6714
1781152,0.749,0.0168,0.6271,0.1221,0.1831,0.6714
1781172,0.7527,0.0204,0.627,-0.4883,0.2441,0.061
1781193,0.7534,0.0189,0.6279,-0.6714,0.6104,-0.4883
1781213,0.7562,0.025,0.627,-1.2207,0.8545,-1.3428
1781233,0.7571,0.0217,0.6259,-1.1597,1.5869,-2.0142
1781253,0.7593,0.0145,0.6273,-1.2817,1.9531,-2.1362
1781273,0.7672,0.0112,0.6163,-1.8921,2.1362,-2.5024
1781293,0.7656,0.0101,0.6071,-2.5024,1.4648,-2.6855
1781313,0.7612,0.006,0.6063,-3.1128,1.77,-2.6245
1781333,0.7617,0.0133,0.6079,-3.418,1.9531,-2.3804
1781356,0.7683,0.0254,0.6061,-3.54,1.6479,-2.0752
1781376,0.7736,0.0303,0.6033,-2.9297,0.9766,-1.6479
1781396,0.7694,0.0339,0.6033,-2.0142,-0.1221,-1.0376
1781419,0.7771,0.0372,0.6046,-1.4038,1.8311,-0.3662
1781440,0.7761,0.0378,0.6072,0.061,-1.6479,0.1221
1781460,0.7712,0.0392,0.6116,0.9155,-0.9155,1.4038
1781480,0.7767,0.0387,0.611,1.77,-0.9155,1.8921
1781503,0.774,0.0291,0.6083,3.54,-1.77,2.1362
1781523,0.7659,0.024,0.6083,4.7607,-5.249,1.8921
1781543,0.752,0.017,0.6066,5.127,-1.8311,2.5024
1781563,0.7559,0.0162,0.606,5.127,-2.9297,2.4414
1781583,0.746,0.0177,0.6095,5.3711,-5.4321,2.5024
1781603,0.746,0.0167,0.6097,4.7607,-1.8311,3.418
1781623,0.7461,0.015,0.6134,4.1504,-0.9155,3.7842
1781643,0.757,0.0134,0.6151,3.9673,-0.9766,3.1738
1781663,0.7546,0.0125,0.6213,4.0283,-2.6855,3.418
1781683,0.765,0.0111,0.6238,2.6245,-0.061,3.9062
1781704,0.7668,0.0112,0.6245,2.3804,-0.7935,3.7842
1781726,0.7662,0.0157,0.6215,1.9531,-1.0986,3.479
1781746,0.7615,0.0171,0.6182,1.709,-1.4648,2.5635
1781766,0.7561,0.0176,0.6193,1.1597,-1.5259,1.6479
1781790,0.7566,0.0161,0.6138,0.6104,-1.1597,0.7935
1781811,0.7596,0.0132,0.6155,0.061,-1.0986,0.4272
1781831,0.7617,0.0132,0.6177,-0.4883,-1.77,-0.3052
1781851,0.7642,0.0146,0.6193,-0.8545,-3.0518,-1.0376
1781871,0.7512,0.0176,0.627,-1.0986,-5.0049,-0.9155
1781891,0.7513,0.0247,0.6298,-1.9531,-2.5635,-1.4648
1781912,0.7452,0.0243,0.6298,-1.5869,-2.5635,-1.6479
1781932,0.7415,0.0242,0.6333,-1.5869,-1.4038,-1.9531
1781952,0.7501,0.0267,0.6367,-1.2817,-0.4883,-2.2583
1781972,0.7563,0.0273,0.6294,-0.8545,0.0,-2.5635
1781992,0.7561,0.0248,0.6226,0.0,-0.4272,-2.5635
1782012,0.7511,0.0244,0.6191,-0.061,-0.4883,-2.2583
1782032,0.7511,0.0212,0.6174,0.3662,-0.6714,-2.0142
1782052,0.752,0.0146,0.6178,0.6104,-0.8545,-1.6479
1782072,0.7551,0.0099,0.6206,0.7324,-1.4038,-1.0376
1782092,0.7576,0.0164,0.6184,0.3052,-1.6479,-0.6714
1782112,0.7511,0.0181,0.6228,0.7324,-2.2583,-0.1221
1782132,0.7445,0.0199,0.6268,0.9155,-2.0142,0.3052
1782152,0.7516,0.0203,0.6271,1.2207,-1.77,0.4883
1782172,0.7518,0.0205,0.6295,1.5869,-1.4648,0.6104
1782192,0.7552,0.0212,0.6292,1.77,-1.5259,0.5493
1782212,0.7554,0.0186,0.6273,2.2583,-1.8921,0.3662
1782232,0.7499,0.0166,0.6273,2.3804,-2.1362,0.4272
1782252,0.7502,0.0109,0.6293,2.3193,-2.1362,0.0
1782272,0.7491,0.0073,0.6323,1.8921,-2.0752,-0.1221
1782292,0.7476,0.0055,0.6335,1.3428,-2.3804,-0.2441
1782312,0.7434,0.007,0.6372,0.8545,-2.5635,-0.5493
1782332,0.7415,0.0043,0.6379,0.7935,-2.3804,-0.9155
1782352,0.7413,0.0038,0.6367,0.4883,-2.2583,-1.0376
1782374,0.7382,0.0061,0.6381,0.0,-2.0142,-1.3428
1782394,0.7386,0.0107,0.6412,-0.1831,-1.8921,-1.4648
1782414,0.7391,0.0114,0.6394,-0.3662,-2.0142,-1.2207
1782434,0.7382,0.0109,0.6407,-0.4272,-1.709,-1.0986
1782454,0.7377,0.0125,0.6393,-0.4272,-1.8921,-0.9155
1782474,0.7375,0.0139,0.6412,-0.3052,-1.8311,-1.0986
1782495,0.7369,0.0143,0.6426,-0.2441,-1.709,-1.0376
1782515,0.7346,0.0129,0.6458,0.1221,-1.8311,-1.0986
1782535,0.7312,0.0103,0.6471,0.1221,-1.5259,-0.7935
1782555,0.7295,0.0096,0.6483,0.0,-1.2817,-0.7935
1782575,0.7312,0.0103,0.6478,0.1831,-1.1597,-0.3052
1782595,0.7321,0.0111,0.6478,0.6714,-0.9766,0.1221
1782615,0.7324,0.0143,0.6466,0.9155,-0.7935,0.4883
1782635,0.7336,0.0171,0.6471,1.8311,-0.6104,1.0376
1782655,0.7346,0.0148,0.6465,1.9531,-0.9155,1.1597
1782675,0.7346,0.0127,0.645,2.0142,-1.0376,1.2817
1782695,0.7361,0.0077,0.6449,2.1362,-0.7324,1.4648
1782715,0.7366,0.0082,0.6497,2.3804,-0.9155,1.4038
1782735,0.7378,0.0101,0.6461,2.3193,-0.7935,1.2817
1782755,0.7389,0.0073,0.646,2.6245,-0.7324,1.4038
1782778,0.7388,0.0065,0.6421,1.9531,-0.7324,0.9766
1782799,0.7386,0.0065,0.6407,1.5869,-0.9155,0.9766
1782819,0.7346,0.0027,0.6407,0.9155,-1.1597,0.7324
1782839,0.7352,0.0017,0.6443,0.6714,-0.7935,0.6104
1782859,0.7367,0.0039,0.6438,0.2441,-1.1597,0.2441
1782879,0.7378,0.009,0.646,-0.2441,-1.0376,0.061
1782899,0.7382,0.0094,0.645,-0.5493,-0.7324,0.1221
1782920,0.7373,0.0116,0.6462,-0.7324,-0.8545,-0.061
1782940,0.7347,0.0128,0.6481,-0.9155,-0.8545,-0.3662
1782960,0.7321,0.015,0.6465,-0.7935,-0.7935,-0.6104
1782980,0.7301,0.0157,0.6479,-0.7935,-0.3662,-0.6714
1783000,0.7296,0.016,0.6486,-0.6104,-0.2441,-0.9155
1783020,0.7291,0.0151,0.6475,-0.3052,-0.4272,-0.6714
1783040,0.7295,0.0149,0.6498,0.0,-0.4272,-0.5493
1783060,0.731,0.0142,0.6494,0.1221,0.061,-0.6104
1783080,0.7319,0.0126,0.6489,0.4272,-0.061,-0.4272
1783100,0.7325,0.0149,0.6471,0.3662,0.1831,-0.3052
1783120,0.7368,0.0126,0.6442,0.7935,0.1221,-0.3052
1783143,0.7383,0.0131,0.6426,0.9766,0.3052,-0.2441
1783165,0.741,0.0132,0.6409,0.9155,0.4272,-0.1221
1783185,0.7401,0.0135,0.6415,1.1597,0.1831,0.0
1783205,0.7379,0.0129,0.6431,1.1597,0.1831,0.3052
1783225,0.7393,0.0106,0.6418,1.0986,0.061,0.2441
1783245,0.7408,0.0089,0.6385,0.9766,0.3662,0.1831
1783265,0.7451,0.0093,0.6383,0.7935,0.7324,0.0
1783285,0.7462,0.0093,0.637,0.7324,0.3662,-0.061
1783305,0.7458,0.0059,0.6371,0.6104,-0.1221,0.0
1783325,0.7446,0.0068,0.6372,0.5493,-0.4272,0.0
1783345,0.7443,0.0074,0.6383,0.7935,-0.4883,0.1831
1783369,0.7426,0.0071,0.6393,0.6104,-0.7935,0.1831
1783389,0.7417,0.0077,0.6418,0.6714,-1.0376,0.0
1783409,0.7397,0.0081,0.6425,0.3052,-0.9155,-0.1221
1783429,0.7388,0.0083,0.6431,0.7935,-0.9766,-0.3052
1783449,0.738,0.0092,0.6436,0.7324,-0.7935,-0.1221
1783469,0.7384,0.0087,0.6458,0.7935,-0.9155,-0.1221
1783490,0.7372,0.0071,0.6456,0.7324,-0.9155,-0.1831
1783510,0.7346,0.0038,0.6459,0.6104,-1.0986,-0.1831
1783530,0.7334,0.0022,0.646,0.7324,-0.9766,-0.1221
1783550,0.735,0.0027,0.6439,0.6104,-0.7935,0.061
1783570,0.7347,0.0042,0.644,0.5493,-0.6104,0.2441
1783590,0.7325,0.0029,0.6461,0.3052,-0.5493,0.3662
1783610,0.7343,0.0088,0.6461,0.1831,-0.3052,0.4272
1783630,0.7321,0.0078,0.6466,0.1221,-0.4883,0.2441
1783650,0.7341,0.0043,0.6478,0.6104,-0.4883,0.6104
1783670,0.7365,0.0042,0.6461,0.1831,-0.3662,0.4272
1783690,0.7389,0.0079,0.6469,0.1831,-0.5493,0.4272
1783710,0.7385,0.0074,0.6462,0.3052,-0.4883,0.6714
1783732,0.7373,0.0099,0.6456,0.3662,-0.3052,0.7935
1783752,0.738,0.0109,0.6448,0.6104,-0.2441,1.1597
1783772,0.7345,0.0118,0.6442,0.5493,-0.2441,1.0986
1783792,0.7343,0.0115,0.6445,0.6714,0.0,0.8545
1783812,0.7347,0.0089,0.6458,0.4883,0.0,0.7324
1783832,0.7358,0.0071,0.6462,0.4883,-0.061,0.6714
1783852,0.7361,0.0063,0.6462,0.4883,-0.1221,0.6104
1783872,0.7347,0.0049,0.6471,0.4272,-0.1831,0.6104
1783892,0.7339,0.0027,0.6477,0.061,0.0,0.4883
1783912,0.7332,0.0033,0.6461,0.061,0.061,0.4883
1783932,0.731,0.0028,0.6482,-0.4272,0.2441,0.4272
1783952,0.7325,0.001,0.6493,-0.2441,0.0,0.4272
1783972,0.7332,0.0017,0.6464,-0.7324,0.6104,0.3662
1783992,0.7334,0.005,0.6498,-0.7935,0.4272,0.4272
1784014,0.7314,0.0067,0.6475,-1.0376,0.3052,0.7324
1784034,0.7299,0.0076,0.6478,-1.1597,0.4883,0.5493
1784054,0.7301,0.0098,0.6472,-1.2817,1.0376,0.7324
1784074,0.7303,0.014,0.6453,-1.1597,1.5869,0.7935
1784094,0.7328,0.0166,0.6422,-1.1597,1.709,0.9766
1784114,0.7378,0.0204,0.6393,-0.7324,1.9531,1.4038
1784134,0.739,0.021,0.6371,-0.4883,2.1973,1.709
1784154,0.7421,0.0238,0.6346,-0.4272,2.3804,2.1362
1784174,0.7465,0.0255,0.6335,-0.1831,2.0142,2.4414
1784194,0.748,0.0265,0.6326,0.2441,1.709,2.6855
1784214,0.7498,0.0283,0.6335,0.2441,1.5259,2.8076
1784234,0.7507,0.0255,0.6333,0.4272,1.0376,2.8076
1784254,0.7504,0.0253,0.6337,0.4883,0.9766,2.8076
1784274,0.751,0.0243,0.6277,0.3662,0.8545,2.5635
1784294,0.7495,0.0229,0.6255,0.3662,0.8545,2.3193
1784314,0.748,0.0233,0.6246,0.1221,1.2207,2.1973
1784334,0.7479,0.0245,0.6256,0.1221,0.6714,2.2583
1784354,0.7507,0.0283,0.6256,0.1831,0.4272,2.0752
1784374,0.7549,0.0311,0.6233,0.3662,0.1221,1.9531
1784394,0.7587,0.0295,0.6219,0.1831,-0.4883,1.5259
1784416,0.7595,0.028,0.6237,-0.1221,-0.7324,1.0986
1784436,0.7566,0.0271,0.6279,-0.061,-1.2817,0.7324
1784456,0.752,0.0287,0.6321,-0.2441,-1.1597,0.3662
1784476,0.7483,0.0337,0.631,-0.2441,-1.4648,0.0
1784496,0.7501,0.0349,0.6321,0.0,-2.8076,-0.6104
1784516,0.7445,0.0343,0.6351,-0.1221,-1.2207,0.0
1784536,0.739,0.0347,0.6376,-0.1831,-1.2207,-0.1831
1784556,0.734,0.0339,0.6399,-0.5493,-1.1597,-0.2441
1784576,0.7317,0.0433,0.6371,-0.9155,-5.3101,-1.4648
1784596,0.7222,0.0452,0.6425,-0.7935,-4.3335,-0.8545
1784616,0.7279,0.0382,0.6455,-0.4883,-1.0986,-0.3662
1784636,0.7236,0.0353,0.647,-0.3052,-3.3569,-0.3662
1784656,0.7257,0.0388,0.6489,-0.4883,-2.5635,0.5493
1784676,0.7238,0.0452,0.6499,0.1831,-1.77,1.8311
1784696,0.7179,0.0499,0.6528,0.7935,-1.0986,2.5024
1784716,0.7268,0.0482,0.6528,0.9766,1.77,3.479
1784736,0.7279,0.0479,0.6503,1.3428,2.4414,3.7842
1784756,0.7314,0.035,0.6289,2.6245,3.0518,3.6011
1784776,0.7347,0.0234,0.6163,3.1738,4.5776,2.9907
1784796,0.7476,0.0099,0.6066,3.6621,6.7139,2.3804
1784816,0.7852,0.0153,0.6127,3.1738,8.606,1.5869
1784836,0.7958,0.0223,0.6151,2.9907,6.5918,1.2817
1784856,0.8046,0.0228,0.6096,3.2959,2.6245,1.8921
1784878,0.7986,0.0206,0.6066,2.9297,0.7324,1.5869
1784898,0.7898,0.0234,0.6127,1.8921,-0.9155,1.2207
1784918,0.7731,0.0275,0.6178,1.5259,-1.8921,1.0376
1784938,0.7588,0.03,0.6177,1.4038,-2.1362,0.9766
1784961,0.7521,0.0312,0.6144,1.2207,-1.5869,0.1831
1784981,0.7463,0.0319,0.6176,1.2207,-1.5869,-0.6714
1785001,0.7437,0.0337,0.6185,0.7324,-1.5259,-1.1597
1785021,0.7439,0.0339,0.6202,0.6104,-1.5259,-0.9766
1785041,0.7465,0.0343,0.6217,0.7324,-1.5259,-0.6104
1785061,0.7523,0.0337,0.626,1.0376,-1.5869,-0.3662
1785081,0.7552,0.0348,0.6304,1.2817,-1.8311,-0.061
1785101,0.7549,0.0353,0.6345,1.2817,-2.0752,0.061
1785122,0.7532,0.0322,0.6351,1.4648,-2.3804,0.1831
1785142,0.7485,0.0259,0.639,1.709,-2.9297,0.1831
1785166,0.7444,0.0244,0.6406,1.2817,-3.0518,-0.1221
1785186,0.7389,0.0264,0.6387,1.2207,-2.8687,-0.2441
1785206,0.7302,0.0281,0.6439,1.0986,-2.7466,-0.5493
1785226,0.7252,0.0284,0.646,0.7324,-2.6855,-0.7324
1785248,0.7242,0.0228,0.6396,0.8545,-2.3804,-1.0376
1785270,0.7372,0.0215,0.6335,0.4883,-1.5259,-1.2207
1785290,0.7424,0.0265,0.6368,0.3662,-1.2817,-1.709
1785313,0.7438,0.0356,0.6431,0.1221,-1.8311,-1.709
1785333,0.7415,0.0327,0.6443,0.6104,-2.5635,-1.709
1785354,0.733,0.0254,0.6444,0.9155,-2.8076,-1.6479
1785374,0.7305,0.0222,0.6456,0.9766,-2.5635,-1.8311
1785396,0.728,0.0156,0.6458,0.9155,-2.5024,-1.77
1785416,0.7334,0.016,0.6492,0.3662,-1.4038,-1.6479
1785436,0.7333,0.0183,0.6504,0.3662,-1.5259,-1.4648
1785456,0.733,0.0188,0.652,0.6714,-1.77,-1.0986
1785479,0.7328,0.0189,0.6495,1.0376,-1.77,-0.7324
1785499,0.7299,0.0153,0.6503,0.8545,-1.709,-0.7935
1785519,0.7275,0.0104,0.651,0.6714,-0.9766,-0.6714
1785539,0.7242,0.015,0.6523,0.2441,-0.8545,-0.7935
1785561,0.7239,0.0172,0.6504,0.3662,-0.9766,-0.6714
1785581,0.7302,0.0116,0.653,0.9155,-0.9766,-0.3662
1785601,0.7323,0.0115,0.653,0.8545,-1.0986,-0.2441
1785621,0.7281,0.0183,0.6545,0.4883,-1.3428,-0.4272
1785641,0.723,0.0134,0.6539,0.4883,-1.0986,-0.4272
1785664,0.7233,0.0159,0.6547,0.3052,-0.3662,-0.1221
1785684,0.7266,0.0214,0.6544,0.6714,-0.4272,0.0
1785706,0.7251,0.02,0.6505,0.7935,-0.3662,0.2441
1785726,0.724,0.0157,0.6506,1.1597,-0.3662,0.4883
1785748,0.7285,0.0144,0.6517,1.0986,-0.1831,0.5493
1785768,0.7317,0.016,0.65,0.7324,-0.1831,0.7324
1785788,0.7321,0.0142,0.6495,0.8545,-0.3662,0.6104
1785808,0.733,0.0121,0.6499,0.5493,-0.4883,0.6714
1785831,0.7307,0.016,0.6475,0.5493,-0.4883,0.6714
1785851,0.7277,0.0175,0.6509,0.4272,-0.4272,0.9766
1785873,0.7322,0.0121,0.6508,0.7324,-0.1221,1.0376
1785893,0.7355,0.017,0.6482,0.6714,0.3052,0.6104
1785916,0.7332,0.0233,0.6484,1.0376,0.3662,0.4272
1785936,0.7356,0.0192,0.6432,1.3428,0.4883,0.3052
1785956,0.7358,0.0146,0.6425,0.9766,0.4272,0.3662
1785976,0.736,0.0138,0.6416,0.7324,0.3052,0.2441
1785996,0.7358,0.0173,0.6426,0.3662,0.0,0.1221
1786016,0.7356,0.0189,0.6433,0.3052,-0.061,-0.061
1786036,0.7366,0.0219,0.6421,0.1831,-0.2441,-0.061
1786056,0.7371,0.0195,0.641,0.1221,-0.4272,0.061
1786079,0.7365,0.0195,0.6423,0.1221,-0.3662,0.061
1786099,0.7388,0.0201,0.6458,0.0,-0.1831,0.3052
1786119,0.74,0.0228,0.647,0.2441,-0.7935,0.5493
1786143,0.7423,0.0243,0.6444,0.7324,-1.2207,0.7935
1786163,0.7346,0.0198,0.6445,1.0376,-1.6479,1.0986
1786183,0.7244,0.017,0.6493,1.5259,-1.709,1.5259
1786203,0.723,0.0173,0.6539,1.4648,-1.0986,1.6479
1786223,0.7241,0.0223,0.6573,1.5259,-0.4272,0.9766
1786243,0.7279,0.0273,0.6583,1.8311,0.1831,0.6104
1786263,0.7281,0.0177,0.6533,1.5869,0.1831,-15.625
1786283,0.7307,0.0098,0.6469,1.3428,0.6714,-0.1831
1786303,0.7323,0.0083,0.645,1.0986,0.4272,-0.4272
1786323,0.7313,0.0121,0.6459,0.6104,0.1221,-0.6104
1786343,0.7341,0.0156,0.6432,0.1831,0.2441,-0.6104
1786363,0.7351,0.0155,0.6427,-0.4272,0.061,-0.8545
1786383,0.7344,0.0175,0.6425,-0.4883,-0.3662,-0.7935
1786403,0.7351,0.0167,0.6448,-0.4272,-0.4883,-0.7324
1786423,0.7361,0.02,0.6503,-0.4883,-0.7935,-0.6714
1786443,0.7362,0.0247,0.6488,-0.1831,-0.6104,-0.3052
1786463,0.7362,0.0237,0.6465,0.3662,-0.4883,0.061
1786483,0.738,0.0244,0.6475,0.8545,-0.3662,0.3662
1786505,0.7389,0.0216,0.6459,0.7935,-0.6104,0.7324
1786525,0.7303,0.02,0.6476,1.0376,-0.8545,1.0986
1786545,0.7267,0.0198,0.6498,1.4038,-0.6104,1.4648
1786565,0.7279,0.0223,0.65,1.4038,-0.4272,1.5259
1786585,0.7299,0.0238,0.6478,1.6479,-0.1221,1.2817
1786605,0.7383,0.0179,0.6442,2.2583,0.3052,1.0376
1786625,0.7421,0.0123,0.6409,2.1362,0.3662,0.6714
1786645,0.7433,0.0092,0.6381,1.709,-0.1831,0.3052
1786665,0.7406,0.0107,0.6396,1.2817,-0.9766,0.3052
1786685,0.7393,0.0079,0.6404,0.9766,-1.0986,0.3052
1786706,0.7373,0.0079,0.6434,0.3662,-1.0986,0.061
1786726,0.7379,0.0132,0.6456,-0.4272,-1.1597,0.2441
1786746,0.7377,0.0176,0.6469,-0.4883,-1.1597,0.1831
1786766,0.7312,0.0192,0.6478,-0.5493,-1.2817,0.4272
1786786,0.7275,0.019,0.6489,-0.4272,-1.5259,0.7935
1786806,0.7306,0.0195,0.6494,-0.1831,-1.1597,1.0986
1786826,0.7311,0.0242,0.6512,0.1221,-0.7324,0.9766
1786850,0.7333,0.028,0.6494,0.9766,-0.3662,0.6104
1786870,0.7332,0.0162,0.6447,1.2817,-0.2441,0.2441
1786890,0.7321,0.0114,0.6438,1.3428,-0.3052,0.4272
1786910,0.7329,0.0098,0.6451,0.9766,-0.3662,0.4883
1786930,0.7336,0.0145,0.6462,0.7935,-0.3662,0.6104
1786950,0.7351,0.0154,0.6488,0.4272,-0.4272,0.6714
1786971,0.7349,0.0176,0.6494,0.1221,-0.4272,0.5493
1786991,0.7321,0.0186,0.6511,0.061,-0.5493,0.4272
1787011,0.7278,0.0216,0.6541,-0.061,-0.3662,0.3662
1787031,0.7305,0.0261,0.6543,0.1831,-0.1831,0.3662
1787051,0.7316,0.0265,0.6505,0.6104,-0.5493,0.7324
1787071,0.7312,0.0205,0.6464,0.9155,-0.9155,0.9155
1787091,0.7314,0.0172,0.6459,1.3428,-0.8545,1.0986
1787111,0.735,0.0173,0.6464,1.4038,-0.7935,1.0376
1787132,0.7269,0.025,0.6526,1.3428,-0.6714,1.0986
1787152,0.7277,0.0266,0.6506,1.4648,-0.7324,1.0986
1787172,0.7321,0.02,0.6484,1.709,-0.6714,0.9766
1787192,0.7323,0.0176,0.6466,1.4648,-0.3662,0.7935
1787212,0.7308,0.0127,0.6493,1.0986,-0.061,0.6714
1787232,0.7345,0.0179,0.646,0.9766,0.1831,0.6104
1787252,0.7371,0.0203,0.6429,0.8545,-0.1831,0.3662
1787272,0.7382,0.0177,0.6416,1.0986,-0.1831,0.3662
1787292,0.7423,0.0132,0.6439,0.9155,-0.3662,0.3052
1787312,0.7405,0.0176,0.646,0.6714,-0.8545,0.061
1787332,0.7316,0.0203,0.65,0.2441,-0.8545,0.2441
1787352,0.7285,0.0243,0.6521,0.3662,-0.8545,0.4883
1787372,0.7277,0.0255,0.6531,0.9155,-0.9155,0.5493
1787392,0.7263,0.0253,0.6534,0.9155,-0.4272,0.5493
1787412,0.7266,0.0251,0.6512,1.1597,-0.3662,0.3662
1787432,0.7283,0.0228,0.6494,1.4038,-1.0986,-0.2441
1787452,0.7239,0.02,0.6511,1.709,0.6104,-0.1831
1787472,0.7285,0.02,0.6499,1.5259,0.0,0.0
1787492,0.7319,0.0165,0.6478,1.5259,0.2441,-0.1221
1787512,0.7339,0.0118,0.6488,1.2207,-0.061,0.0
1787532,0.7328,0.0126,0.6486,1.0376,-0.1831,0.0
1787552,0.7307,0.0139,0.6483,0.4883,-0.3662,0.0
1787572,0.7313,0.0125,0.6483,0.4272,0.0,0.1221
1787592,0.7345,0.0128,0.6489,0.4272,0.1221,0.0
1787612,0.7368,0.0162,0.6453,-0.1831,-0.061,0.0
1787633,0.7382,0.021,0.6432,0.0,-0.4272,0.3662
1787653,0.7377,0.0209,0.6444,0.0,-0.4883,0.6104
1787673,0.7356,0.02,0.6442,-0.061,-0.6104,0.6104
1787693,0.7338,0.0206,0.6454,0.061,-0.4883,0.9155
1787717,0.7323,0.0209,0.6478,0.1831,-0.4883,0.8545
1787737,0.7318,0.0205,0.6493,0.4883,-0.3662,1.0986
1787758,0.7321,0.0209,0.649,0.6714,-0.6104,1.0376
1787778,0.7334,0.0226,0.6467,1.0986,-0.5493,1.0376
1787798,0.733,0.0212,0.6484,0.7935,-0.5493,1.1597
1787818,0.7333,0.0234,0.6487,1.1597,-0.6104,0.9766
1787838,0.734,0.0234,0.6488,1.1597,-0.7324,0.7935
1787858,0.7323,0.0223,0.6477,1.2207,-0.7935,0.6104
1787878,0.7318,0.0214,0.6472,1.0986,-0.4883,0.4883
1787898,0.7323,0.02,0.6466,1.2817,-0.5493,0.4883
1787918,0.733,0.0177,0.6461,1.0986,-0.4272,0.3662
1787938,0.7321,0.0154,0.6466,1.0986,-0.6104,0.4272
1787958,0.7333,0.015,0.6478,0.9155,-0.6104,0.5493
1787978,0.7321,0.0151,0.6478,0.5493,-0.6714,0.5493
1788000,0.7339,0.0177,0.6475,0.4883,-0.5493,0.6104
1788020,0.7355,0.0193,0.6469,0.6714,-0.6104,0.5493
1788040,0.736,0.0208,0.6442,0.7324,-0.3662,0.4272
1788060,0.7349,0.0139,0.6454,0.4272,-0.4272,0.4272
1788080,0.7338,0.0149,0.6443,0.2441,-0.6714,0.4272
1788100,0.7311,0.022,0.6511,0.3052,-0.4883,0.2441
1788120,0.73,0.0209,0.6498,0.5493,-0.3052,0.4272
1788140,0.7351,0.0204,0.6503,1.0376,-0.4883,0.4883
1788164,0.7423,0.0244,0.6447,0.8545,-0.7324,0.3052
1788184,0.7427,0.0261,0.6427,1.2817,-0.9155,0.2441
1788204,0.7386,0.0236,0.6459,1.0376,-1.1597,0.061
1788224,0.7346,0.0234,0.6472,1.2817,-1.2817,0.1831
1788244,0.729,0.0205,0.6498,1.2207,-0.9766,0.1831
1788264,0.7253,0.0192,0.6499,1.0986,-0.8545,0.061
1788284,0.7284,0.0184,0.6501,0.9766,-0.6714,0.0
1788306,0.7279,0.0177,0.6509,0.9766,-0.7324,0.1831
1788328,0.7294,0.0143,0.6525,0.9155,-0.4272,0.3052
1788349,0.7292,0.0144,0.6532,0.9155,-0.6104,0.4272
1788369,0.7292,0.0154,0.6521,0.6714,-0.5493,0.4272
1788389,0.7275,0.0138,0.6522,0.3662,-0.6104,0.5493
1788409,0.7275,0.0177,0.6525,0.4272,-0.4272,0.3662
1788429,0.7285,0.0166,0.6517,0.6714,-0.5493,0.4272
1788449,0.7302,0.0153,0.6527,0.7324,-0.3662,0.3662
1788469,0.7294,0.0171,0.6509,0.4883,-0.4272,0.3052
1788489,0.7279,0.0164,0.6505,0.6104,-0.4883,0.6104
1788509,0.7306,0.0184,0.6499,0.5493,-0.3662,0.5493
1788529,0.7321,0.0176,0.6501,0.5493,-0.3052,0.6104
1788549,0.7325,0.0181,0.6505,0.4272,-0.1831,0.5493
1788569,0.7345,0.0183,0.6483,0.3662,0.1221,0.1221
1788589,0.7356,0.0197,0.646,0.3662,-0.1831,-0.061
1788610,0.7363,0.0193,0.6456,0.3662,-0.1221,-0.3662
1788630,0.7383,0.0188,0.6453,0.3052,-0.3052,-0.5493
1788653,0.7362,0.019,0.6439,0.1831,-0.6714,-0.2441
1788673,0.7375,0.0188,0.6451,0.061,-0.8545,0.061
1788693,0.7366,0.0208,0.6461,0.1221,-1.0376,0.2441
1788713,0.7338,0.0211,0.6472,0.061,-1.0986,0.2441
1788733,0.7329,0.0222,0.6487,0.3052,-1.2207,0.3052
1788753,0.731,0.0223,0.6506,0.1221,-1.0376,0.4883
1788773,0.7306,0.0222,0.6499,0.1831,-0.9766,0.4883
1788793,0.7308,0.0223,0.6504,0.3662,-0.9155,0.4272
1788813,0.7305,0.0222,0.6508,0.4272,-0.7935,0.4272
1788834,0.7311,0.0219,0.6508,0.6714,-0.6104,0.4272
1788854,0.7273,0.0201,0.6538,0.8545,-0.7324,0.5493
1788874,0.7273,0.0197,0.6537,0.8545,-0.6714,0.4883
1788894,0.7245,0.0194,0.6536,0.7935,-0.6714,0.1831
1788914,0.7257,0.0187,0.6547,0.7935,-0.5493,0.1221
1788934,0.7268,0.0194,0.6539,0.8545,-0.5493,0.061
1788954,0.7241,0.0193,0.6566,0.7935,-0.3052,-0.2441
1788974,0.7212,0.0145,0.6571,0.6714,-0.4883,-0.3662
1788994,0.7203,0.0187,0.6512,0.4272,0.5493,-0.6104
1789018,0.7261,0.0211,0.6493,0.5493,1.0376,-0.7935
1789038,0.7346,0.0227,0.6561,0.7935,1.0986,-0.7324
1789058,0.7316,0.0236,0.6581,0.1831,0.7324,-1.3428
1789078,0.7319,0.0222,0.6488,0.1831,0.7324,-1.6479
1789098,0.7378,0.0176,0.6466,0.5493,1.2207,-1.5869
1789119,0.7456,0.0176,0.6416,0.7935,0.5493,-0.7935
1789139,0.7399,0.0166,0.6416,1.0376,-0.3662,-0.061
1789159,0.7314,0.0157,0.644,1.0986,-0.7935,0.4883
1789179,0.7247,0.0172,0.6421,0.7935,-0.7324,0.7324
1789199,0.7205,0.0215,0.6495,0.8545,-0.6104,1.1597
1789219,0.7233,0.0203,0.661,1.3428,-0.7935,1.5259
1789239,0.7347,0.0112,0.6593,1.5869,-0.9155,2.5635
1789259,0.7458,0.0089,0.6494,2.0752,-1.6479,3.2959
1789279,0.762,0.0114,0.6393,2.9907,-2.1362,3.7842
1789299,0.7625,0.0172,0.6427,2.8076,-3.6011,4.3335
1789319,0.7565,0.021,0.6285,2.7466,-3.9673,3.7842
1789339,0.7505,0.0126,0.621,3.1128,-4.2114,3.2349
1789359,0.7498,0.0094,0.6237,2.3193,-4.7607,2.5635
1789379,0.7335,0.011,0.6401,1.9531,-5.249,2.3193
1789401,0.7173,0.0099,0.6534,1.4648,-5.188,2.3193
1789421,0.7081,0.0116,0.6644,0.9155,-3.6621,2.0142
1789441,0.7261,0.0154,0.6548,1.1597,-1.77,1.2817
1789461,0.7343,0.0132,0.6615,0.7935,-1.5259,0.6104
1789481,0.7284,0.015,0.6675,0.1831,-1.3428,0.3662
1789501,0.7208,0.0167,0.6637,-0.1221,-1.5259,0.0
1789521,0.7261,0.021,0.6519,0.1831,-1.2817,-0.3662
1789545,0.7233,0.0227,0.6594,0.3662,-1.8311,-0.4272
1789565,0.7115,0.0232,0.6636,0.4272,-2.0752,-0.1831
1789587,0.7056,0.0262,0.6688,0.1831,-2.0752,0.0
1789607,0.7079,0.0259,0.6677,0.4883,-1.709,0.061
1789627,0.7089,0.0288,0.673,0.7935,-1.4648,0.1221
1789648,0.7089,0.0316,0.6769,1.0376,-1.3428,0.3052
1789668,0.7111,0.0339,0.6771,1.0986,-1.709,0.3662
1789688,0.7102,0.0297,0.674,1.9531,-1.709,0.6104
1789708,0.708,0.0266,0.675,1.77,-1.4648,0.6714
1789728,0.7073,0.0227,0.6722,1.8311,-1.4038,0.6714
1789748,0.7052,0.0188,0.6727,1.2817,-1.2207,0.7935
1789768,0.7059,0.0199,0.6708,1.2207,-0.6714,0.5493
1789790,0.7091,0.0183,0.6715,1.0986,-0.7324,0.4883
1789810,0.709,0.0143,0.6735,1.1597,-0.5493,0.2441
1789831,0.712,0.0197,0.6689,0.9766,-0.5493,0.0
1789851,0.7094,0.0188,0.6704,0.6714,-0.8545,-0.1221
1789873,0.7131,0.0127,0.6721,0.9766,-0.9766,-0.3052
1789893,0.7157,0.0093,0.6736,0.8545,-0.7935,-0.5493
1789913,0.7158,0.0142,0.6731,0.2441,-0.4272,-0.7935
1789933,0.7133,0.0161,0.6716,0.4272,-0.5493,-0.9155
1789953,0.7104,0.0157,0.6714,0.1831,-0.4883,-0.9766
1789973,0.7129,0.0166,0.6694,0.6104,0.1831,-0.8545
1789993,0.7119,0.0154,0.6694,0.4272,-0.2441,-0.7324
1790013,0.7101,0.0166,0.6693,0.4272,0.1221,-0.7324
1790033,0.7083,0.0168,0.6672,0.4883,0.2441,-0.7935
1790053,0.707,0.0192,0.6685,0.3662,0.3052,-0.5493
1790073,0.7107,0.027,0.6653,0.3052,0.7324,-0.4272
1790093,0.7147,0.0284,0.6678,0.3662,0.7935,-0.4883
1790113,0.7291,0.0219,0.6625,0.8545,0.4883,-0.3052
1790133,0.7268,0.0198,0.6635,1.2207,-0.061,0.0
1790153,0.7244,0.0176,0.6637,1.5869,-0.1221,0.1831
1790177,0.7305,0.0149,0.6625,1.8921,-0.1831,0.4883
1790197,0.73,0.0137,0.6587,2.0142,-0.8545,0.8545
1790217,0.7242,0.0115,0.6564,2.1973,-1.4648,1.4038
1790237,0.7225,0.0093,0.6576,2.5635,-1.6479,1.8311
1790257,0.7208,0.0063,0.6589,2.3804,-1.6479,2.0142
1790277,0.7217,0.0067,0.6586,2.1362,-1.6479,1.8311
1790297,0.7191,0.0054,0.6622,1.6479,-1.5869,1.1597
1790317,0.7186,0.0079,0.6641,1.1597,-1.4038,0.7324
1790337,0.7203,0.0073,0.6671,1.2817,-1.4038,0.061
1790357,0.7212,0.0071,0.6686,1.0986,-1.4038,-0.3052
1790377,0.7177,0.0073,0.67,0.3662,-1.5869,-0.6104
1790397,0.7156,0.0084,0.6716,0.4883,-1.4648,-0.6714
1790417,0.7123,0.0101,0.6718,0.5493,-1.3428,-0.5493
1790437,0.7087,0.0104,0.6735,0.8545,-1.4038,-0.6104
1790457,0.708,0.0121,0.6726,0.8545,-1.4648,-0.7324
1790478,0.7073,0.014,0.6736,1.2207,-1.2817,-0.3662
1790498,0.7051,0.0134,0.6743,1.2817,-1.2817,-0.1221
1790520,0.7073,0.0122,0.6764,1.4648,-1.4038,0.2441
1790540,0.7051,0.0125,0.6763,1.4038,-1.8921,0.5493
1790560,0.7057,0.0107,0.6765,1.6479,-1.77,0.9766
1790580,0.7025,0.0096,0.678,1.5869,-1.5259,0.7935
1790600,0.7057,0.0096,0.6782,1.5869,-1.2207,0.7324
1790620,0.7075,0.0066,0.6796,1.2207,-1.2207,0.6104
1790641,0.7106,0.0079,0.6765,1.0986,-1.0376,0.7324
1790661,0.7109,0.0092,0.6757,0.8545,-1.2207,0.6714
1790681,0.7075,0.0074,0.6763,1.1597,-1.4648,0.7935
1790701,0.7092,0.0048,0.6769,1.2817,-0.9766,0.5493
1790721,0.712,0.004,0.6757,0.9155,-1.0376,0.4883
1790741,0.712,0.0071,0.675,0.9766,-1.1597,0.3662
1790761,0.7087,0.0073,0.676,0.9155,-1.0986,0.4883
1790782,0.7091,0.0115,0.6755,0.9766,-1.0376,0.6714
1790802,0.7083,0.0135,0.6758,1.2817,-0.9155,0.4883
1790822,0.7054,0.0134,0.6735,1.2817,-0.9155,0.4883
1790842,0.7073,0.0145,0.6737,1.3428,-0.6714,0.1831
1790865,0.7089,0.0116,0.673,1.2207,-0.6104,-0.061
1790885,0.7102,0.0088,0.6736,1.0376,-0.9766,-0.061
1790908,0.7108,0.0062,0.6742,0.9155,-1.1597,0.061
1790929,0.7122,0.0072,0.6747,1.0376,-1.2817,0.1831
1790949,0.7115,0.0071,0.6763,0.9155,-1.5869,0.7324
1790969,0.7117,0.0071,0.6763,0.9155,-1.6479,0.6104
1790989,0.71,0.0076,0.675,1.1597,-1.4038,0.6104
1791009,0.7087,0.0056,0.677,0.7935,-1.5869,0.5493
1791029,0.71,0.0096,0.6769,0.8545,-1.6479,0.3052
1791049,0.7072,0.0093,0.6768,1.0986,-1.5259,0.3662
1791069,0.7069,0.0059,0.676,0.8545,-1.4648,0.4883
1791093,0.7067,0.0073,0.6736,0.7935,-1.6479,0.6104
1791113,0.7048,0.0089,0.6793,0.8545,-1.3428,0.4272
1791135,0.7057,0.0065,0.679,0.6104,-1.0376,0.1221
1791155,0.7036,0.0045,0.6759,1.0986,-0.8545,0.0
1791175,0.7062,0.0043,0.6829,1.2817,-1.0376,0.1831
1791195,0.6993,0.0043,0.6849,0.9766,-1.2817,0.3052
1791217,0.6951,0.0065,0.6864,0.7935,-1.2207,0.4272
1791237,0.6964,0.0049,0.689,0.6104,-0.4272,0.4272
1791257,0.6984,0.0051,0.687,0.4883,-0.5493,0.4272
1791278,0.6971,0.0009,0.6879,0.4883,-0.4883,0.6104
1791298,0.6932,0.0023,0.694,0.3052,-0.5493,0.7324
1791318,0.6892,0.0095,0.6941,0.2441,-0.7324,0.7935
1791338,0.6893,0.0121,0.6949,0.1221,-0.3052,0.4883
1791358,0.693,0.0125,0.6926,0.4883,-0.1831,0.3052
1791379,0.6948,0.0077,0.6962,0.5493,0.3052,0.1221
1791399,0.6895,0.0055,0.6945,0.4883,1.1597,-0.2441
1791419,0.693,0.0027,0.6871,-0.2441,2.0142,-0.9766
1791439,0.6993,0.0084,0.6891,-1.1597,3.1738,-1.4038
1791459,0.7096,0.0144,0.6812,-1.2817,3.418,-2.3193
1791479,0.7205,0.0162,0.671,-0.6714,2.6855,-2.5024
1791499,0.7205,0.0193,0.6715,-0.061,1.709,-2.5635
1791519,0.7114,0.0143,0.6708,0.9766,-0.061,-2.0752
1791539,0.7053,0.0098,0.6699,0.5493,-0.2441,-1.8311
1791559,0.7009,0.0092,0.6732,0.5493,-0.5493,-0.9155
1791579,0.6987,0.0024,0.6798,0.6714,0.2441,-0.3662
1791599,0.7007,-0.0001,0.6774,0.9766,0.0,0.1221
1791619,0.7158,0.005,0.6737,1.0986,-0.1221,0.4272
1791639,0.7159,0.0029,0.6741,1.4648,-0.6714,0.9155
1791659,0.712,0.0021,0.6758,1.5869,-0.8545,1.0986
1791679,0.7043,-0.0054,0.6715,1.3428,-0.7324,1.2207
1791702,0.7059,0.0015,0.6696,0.6714,-0.3052,0.4272
1791722,0.7102,0.0171,0.6715,0.4883,-0.061,-0.7324
1791742,0.7194,0.02,0.6749,1.4648,-0.8545,-0.7324
1791762,0.7178,0.0012,0.6736,2.0142,-1.4648,-0.8545
1791782,0.7124,-0.0027,0.6704,1.8311,-1.6479,-1.0376
1791802,0.7068,-0.0099,0.6775,0.4883,-1.1597,-1.8311
1791822,0.7081,-0.0126,0.6826,-0.3052,-0.4272,-2.3193
1791844,0.7147,-0.0051,0.6868,-1.1597,-0.9766,-2.3804
1791864,0.7092,-0.0045,0.6874,-1.3428,-1.3428,-2.5635
1791887,0.7019,0.0016,0.688,-1.2817,-1.1597,-2.7466
1791907,0.6989,0.0109,0.6921,-0.6714,-1.2817,-2.8076
1791927,0.6891,0.019,0.6938,-0.4883,-1.0986,-2.6855
1791947,0.6759,0.0127,0.687,-0.1221,-0.8545,-2.3804
1791967,0.6782,-0.0002,0.6797,0.1831,0.3662,-2.1362
1791987,0.6892,0.0001,0.6726,0.3052,2.5024,-2.0752
1792007,0.6998,0.0045,0.6639,1.2817,3.7231,-1.4038
1792027,0.7139,0.0074,0.6552,2.1973,3.6621,-0.3662
1792047,0.7263,0.0121,0.6602,3.2349,2.7466,1.77
1792070,0.7419,0.0236,0.6633,4.5166,1.77,2.7466
1792090,0.7423,0.02,0.6666,4.7607,-0.061,2.9907
1792110,0.7412,0.0079,0.665,4.2114,-0.8545,2.9297
1792130,0.7278,-0.0052,0.6678,3.479,-1.5259,3.1738
1792150,0.7222,-0.0009,0.6566,1.8311,-1.0376,2.4414
1792170,0.7194,0.007,0.6639,1.0986,0.0,2.3193
1792190,0.7246,0.0082,0.6691,0.7324,2.6855,2.5635
1792211,0.7137,-0.0065,0.6687,0.7324,0.5493,1.4648
1792231,0.7079,-0.0149,0.6678,-1.4648,0.9766,-1.8921
1792252,0.702,-0.0131,0.6718,-2.5635,0.0,-4.3945
1792272,0.6873,-0.0117,0.6699,-3.1738,-1.8311,-7.2021
1792294,0.675,-0.0256,0.6857,-4.2114,-1.8311,-7.6294
1792314,0.6763,-0.0354,0.6801,-5.249,0.4883,-7.5073
1792334,0.6875,-0.0317,0.6656,-5.6152,0.2441,-7.6904
1792354,0.6992,-0.0142,0.6761,-6.1646,0.9155,-7.4463
1792378,0.7056,0.0032,0.6837,-5.0659,0.9766,-6.958
1792398,0.7133,0.0116,0.6945,-3.9673,1.9531,-6.2256
1792420,0.7302,0.0205,0.7034,-1.0986,1.4038,-3.6011
1792440,0.7372,0.0153,0.6965,0.5493,0.2441,-2.1362
1792460,0.7313,-0.0039,0.6899,3.6621,-1.5259,0.3052
1792483,0.7229,-0.0159,0.6796,5.0659,-2.0752,1.0986
1792503,0.7177,-0.0127,0.6736,6.7139,-1.8921,1.6479
1792523,0.7114,-0.0159,0.6708,7.6904,-0.7935,2.1362
1792543,0.7167,-0.0204,0.672,8.1787,-0.6104,2.6855
1792566,0.7338,-0.0292,0.668,9.0332,-1.1597,3.3569
1792586,0.7314,-0.0414,0.6696,8.2397,-3.1128,4.5166
1792606,0.7017,-0.0537,0.6718,7.9346,-5.249,5.0659
1792626,0.6875,-0.0632,0.6737,7.2632,-6.1646,5.6152
1792646,0.6793,-0.0549,0.6947,6.1646,-4.2114,5.5542
1792666,0.687,-0.0303,0.7079,5.8594,-2.8687,5.127
1792686,0.6943,-0.0082,0.7111,5.6152,-2.1973,4.6997
1792706,0.6886,-0.0079,0.7029,5.8594,-1.4648,4.1504
1792730,0.6874,-0.0177,0.6931,5.127,-0.6104,2.9907
1792750,0.6857,-0.0292,0.6816,4.8828,0.4883,2.5024
1792770,0.691,-0.0404,0.677,4.5776,1.6479,2.5635
1792790,0.7036,-0.0396,0.6804,3.8452,1.77,2.7466
1792810,0.7062,-0.0305,0.691,3.418,1.1597,2.1973
1792830,0.7039,-0.031,0.6947,2.7466,0.7935,1.5259
1792850,0.7002,-0.0344,0.6945,1.6479,0.7935,0.9155
1792870,0.6868,-0.0431,0.6962,0.0,1.3428,-0.1221
1792890,0.6812,-0.0474,0.6921,-1.0376,2.1973,-0.2441
1792910,0.6781,-0.0471,0.6899,-2.0752,3.1738,-0.6104
1792930,0.6846,-0.0408,0.6844,-2.8076,4.7607,-0.7324
1792950,0.6941,-0.035,0.6766,-3.2959,5.7983,-0.9155
1792970,0.7042,-0.0317,0.6741,-3.9062,6.3477,-1.0986
1792990,0.7134,-0.0284,0.6724,-4.6997,6.5308,-1.0986
1793010,0.7142,-0.0249,0.674,-4.9438,5.9204,-0.7935
1793032,0.7211,-0.0248,0.6713,-4.6997,5.3101,-0.7935
1793052,0.723,-0.0227,0.6696,-4.6387,5.188,-0.4883
1793072,0.7203,-0.0126,0.6702,-4.0894,5.3711,-0.3052
1793092,0.7231,-0.0079,0.6687,-3.6011,5.0659,-0.1221
1793112,0.7172,-0.0068,0.6597,-2.7466,4.6387,0.3662
1793132,0.7161,-0.0026,0.662,-2.2583,5.3711,0.7935
1793152,0.717,-0.0045,0.6608,-1.709,5.3711,1.1597
1793176,0.7224,-0.0101,0.6531,-1.1597,6.897,1.8311
1793196,0.7244,-0.01,0.6527,-1.0376,8.3008,1.8311
1793216,0.7313,-0.0087,0.6481,-1.4038,8.9111,1.9531
1793256,0.7396,-0.0056,0.6395,-1.2817,8.606,2.3804
1793276,0.7415,-0.0049,0.6316,-0.5493,8.3008,2.8687
1793296,0.7468,-0.007,0.6283,-0.4883,8.2397,3.0518
1793317,0.7542,0.0007,0.6235,-0.2441,8.0566,3.1128
1793339,0.7548,0.0048,0.6208,0.061,6.7749,3.54
1793360,0.7574,0.0007,0.621,0.4272,6.5308,3.6011
1793380,0.7621,-0.0007,0.6217,0.4883,5.9204,3.418
1793400,0.7637,0.0063,0.6163,0.061,4.8828,3.1738
1793420,0.764,0.0051,0.6105,0.061,4.9438,3.1128
1793440,0.769,0.0038,0.6069,-0.3052,5.127,2.5024
1793460,0.7714,0.0063,0.6062,-0.6714,5.0659,2.2583
1793482,0.7688,0.0092,0.6069,-0.6104,4.1504,2.0142
1793502,0.7693,0.0082,0.6064,-0.5493,3.54,1.8921
1793522,0.7712,0.011,0.6057,-0.6104,3.0518,1.9531
1793542,0.7704,0.0111,0.6033,-0.7324,2.5635,1.8921
1793562,0.7715,0.0104,0.6039,-0.8545,2.5024,1.9531
1793582,0.7756,0.0139,0.6024,-1.0376,2.3804,2.0752
1793603,0.7783,0.0175,0.6014,-0.7324,2.0142,2.0752
1793623,0.7716,0.0193,0.6041,-0.4272,1.1597,2.1362
1793643,0.7742,0.0173,0.6024,-0.3052,0.9155,1.9531
1793663,0.7748,0.0168,0.601,0.0,0.7935,1.8921
1793683,0.7739,0.0242,0.5994,-0.061,0.2441,1.4038
1793703,0.7715,0.022,0.6005,0.2441,0.1221,1.1597
1793723,0.7725,0.022,0.6016,0.4883,0.3662,0.8545
1793744,0.7737,0.021,0.601,0.3052,0.2441,0.5493
1793764,0.7747,0.021,0.5995,0.1831,0.3052,0.1831
1793784,0.7736,0.0219,0.5977,0.3052,-0.061,0.061
1793804,0.7717,0.022,0.599,0.2441,0.0,-0.2441
1793824,0.7736,0.0197,0.5996,0.4272,-0.3662,-0.4272
1793844,0.772,0.0188,0.6022,0.3662,-0.9155,-0.4272
1793864,0.7708,0.0161,0.6022,0.2441,-0.9766,-0.4272
1793884,0.7712,0.0157,0.6023,0.3052,-0.6714,-0.3662
1793904,0.7715,0.0179,0.6029,0.4272,-0.7324,-0.3662
1793924,0.7704,0.0179,0.606,0.6104,-0.8545,-0.5493
1793944,0.7703,0.0188,0.6062,0.5493,-1.0986,-0.5493
1793964,0.7701,0.0148,0.6074,0.7935,-1.0376,-0.3662
1793984,0.7668,0.0143,0.608,0.6714,-1.2817,-0.2441
1794004,0.7629,0.0115,0.6077,0.6714,-1.4648,-0.4272
1794024,0.7645,0.0118,0.6106,0.6104,-1.0376,-0.6104
1794045,0.7649,0.0128,0.6095,0.4883,-1.0986,-0.7935
1794065,0.7643,0.0115,0.6105,0.8545,-0.9155,-0.5493
1794085,0.7616,0.0095,0.6107,0.7935,-0.9766,-0.5493
1794109,0.7635,0.0116,0.6102,0.7324,-0.9155,-0.4272
1794129,0.7643,0.0116,0.6073,0.9766,-1.1597,-0.6714
1794149,0.7628,0.0076,0.6104,0.7935,-1.0376,-0.7324
1794169,0.7645,0.0056,0.6147,0.7324,-0.9155,-1.0376
1794191,0.7645,0.0076,0.6161,0.7935,-1.0986,-0.8545
1794211,0.7605,0.0077,0.6171,0.9766,-0.9766,-0.5493
1794231,0.759,0.0082,0.6162,0.9155,-0.6714,-0.4272
1794251,0.7609,0.0076,0.6152,1.0376,-0.6104,-0.3662
1794274,0.76,0.0057,0.6147,1.0376,-0.3662,-0.1831
1794294,0.7563,0.0059,0.6141,1.0986,-0.061,-0.1221
1794314,0.7554,0.0068,0.6146,1.4038,-0.061,0.0
1794334,0.7563,0.0044,0.614,1.3428,0.1831,0.0
1794354,0.7574,0.0044,0.6152,1.4648,0.3052,0.0
1794374,0.7623,0.0051,0.6144,1.1597,0.2441,0.1831
1794394,0.7642,0.0051,0.6136,1.6479,0.061,0.3052
1794414,0.7632,0.0039,0.6122,1.1597,0.0,0.2441
1794434,0.7634,0.0007,0.6108,1.2207,-0.1221,0.4272
1794454,0.7628,-0.0029,0.6115,1.2207,0.3662,0.4883
1794476,0.7643,-0.0001,0.6062,0.8545,0.7935,0.3052
1794496,0.7649,0.0066,0.6061,0.9766,0.5493,0.6104
1794516,0.769,0.0094,0.6088,1.0376,0.3052,0.9766
1794536,0.7723,0.0062,0.6039,1.0376,0.061,0.9155
1794558,0.7725,0.0012,0.6044,1.0376,-0.3052,0.8545
1794578,0.7719,0.0012,0.6008,0.6714,-0.3662,0.7935
1794598,0.771,0.0005,0.6022,0.6104,-0.3662,0.6104
1794618,0.7733,0.0026,0.6029,0.4272,-0.4883,0.6104
1794638,0.7717,0.0046,0.6023,0.3662,-0.6104,0.7935
1794658,0.7703,0.0071,0.6028,0.3662,-1.2817,0.9155
1794681,0.772,0.0062,0.6013,0.6714,-1.4038,1.2817
1794701,0.7738,0.0038,0.6008,0.5493,-2.0142,1.5869
1794722,0.7739,0.0073,0.6061,0.4883,-2.4414,1.709
1794742,0.77,0.0104,0.6069,0.4883,-2.9907,1.4038
1794765,0.7605,0.0154,0.6145,0.4883,-2.8687,1.4648
1794785,0.7576,0.0168,0.6188,0.6714,-2.6245,1.2817
1794805,0.7565,0.0161,0.6224,0.6104,-2.3193,1.0986
1794825,0.7552,0.0149,0.6229,0.6714,-2.2583,1.0376
1794849,0.7528,0.0098,0.6206,0.6714,-1.9531,1.0376
1794869,0.7545,0.0084,0.6212,0.3662,-1.6479,0.8545
1794889,0.7521,0.0109,0.6208,0.4272,-1.5869,0.8545
1794909,0.752,0.0112,0.6178,0.7935,-1.4038,0.7324
1794929,0.7523,0.0072,0.6218,0.6714,-1.0986,0.6104
1794951,0.7555,0.0096,0.6226,0.4272,-1.0986,0.3662
1794971,0.7549,0.0114,0.623,0.4272,-0.9766,0.2441
1794991,0.7563,0.006,0.626,0.5493,-0.9766,0.3052
1795011,0.756,0.0057,0.6235,0.3662,-0.9766,0.2441
1795033,0.7561,0.0078,0.6198,0.7935,-1.0986,0.3662
1795053,0.7551,0.0072,0.6238,0.4883,-0.6714,0.3052
1795073,0.7563,0.0095,0.623,0.3052,-0.4883,0.0
1795093,0.7545,0.0103,0.6228,0.3662,-0.4883,0.1831
1795113,0.7507,0.0106,0.6211,0.3662,-0.3052,0.1221
1795133,0.7499,0.0114,0.6193,0.4272,0.1221,0.1221
1795153,0.75,0.0111,0.6176,0.7935,0.3052,0.2441
1795173,0.7517,0.0099,0.6194,0.9155,0.4272,0.3662
1795193,0.7555,0.0109,0.6193,0.6714,0.1831,0.4272
1795215,0.7595,0.0084,0.616,0.8545,0.1831,0.6104
1795235,0.7634,0.0077,0.6179,0.7324,0.061,0.6714
1795255,0.7631,0.0112,0.6185,0.5493,-0.1831,0.7324
1795276,0.7601,0.0098,0.619,0.6714,-0.5493,1.0986
1795296,0.759,0.006,0.6198,0.6104,-0.4272,0.9155
1795317,0.7621,0.009,0.6177,0.2441,-0.4272,0.7935
1795340,0.7581,0.0148,0.6184,0.4272,-0.4272,0.6714
1795360,0.7583,0.0159,0.6184,0.6104,-0.4883,0.8545
1795380,0.757,0.0135,0.6176,0.9766,-0.2441,0.8545
1795401,0.7554,0.0132,0.6187,0.8545,0.0,0.7935
1795421,0.7574,0.0153,0.6169,0.9155,-0.061,0.6104
1795441,0.7595,0.0121,0.6152,1.0376,0.0,0.6714
1795461,0.7593,0.0115,0.6149,1.0986,-0.3662,0.6714
1795481,0.7614,0.0111,0.6146,1.1597,-0.4272,0.6714
1795505,0.7616,0.0107,0.6138,1.0986,-0.3662,0.6714
1795525,0.7633,0.0104,0.6152,0.6714,-0.7324,0.7935
1795546,0.7623,0.0118,0.6156,0.7935,-0.6104,0.6104
1795566,0.7603,0.0142,0.6167,0.4272,-0.6714,0.3052
1795586,0.7609,0.0128,0.6156,0.6714,-0.7935,0.1831
1795610,0.7585,0.0139,0.616,0.5493,-0.6714,0.1831
1795634,0.7603,0.012,0.6151,0.3052,-0.3662,0.0
1795654,0.7612,0.0134,0.6167,0.4272,-0.6714,0.1831
1795674,0.7583,0.0142,0.6155,0.1221,-0.4883,0.1831
1795694,0.7576,0.0139,0.6154,0.1831,-0.7935,0.3052
1795714,0.7587,0.0144,0.6179,0.4272,-0.8545,0.3052
1795734,0.7612,0.015,0.6173,0.3662,-0.9766,0.4272
1795754,0.761,0.0137,0.6173,0.3052,-1.0986,0.4883
1795776,0.7629,0.0137,0.6185,0.6104,-1.3428,0.7324
1795796,0.7614,0.0157,0.6193,0.8545,-1.3428,0.6104
1795818,0.7545,0.0216,0.6187,1.2817,-1.3428,0.7324
1795838,0.7566,0.0162,0.6196,1.5259,-1.1597,0.7935
1795858,0.7563,0.016,0.619,1.2817,-1.1597,0.5493
1795878,0.7545,0.014,0.6191,1.6479,-0.9155,0.4883
1795901,0.7545,0.0084,0.6187,1.5869,-0.9766,0.4883
1795921,0.7555,0.0105,0.6191,1.709,-0.8545,0.4272
1795941,0.7623,0.0143,0.6156,1.6479,-1.0986,0.3662
1795961,0.7604,0.0125,0.6187,1.709,-1.2207,0.7324
1795981,0.7617,0.01,0.6202,1.0376,-1.3428,0.5493
1796001,0.7596,0.01,0.6223,0.7935,-1.5869,0.4272
1796021,0.7574,0.0098,0.6212,0.7935,-1.6479,0.1221
1796041,0.7548,0.0087,0.6219,0.8545,-1.4648,-0.061
1796063,0.7516,0.0099,0.6218,1.0376,-1.6479,-0.061
1796083,0.7522,0.0084,0.6199,0.9766,-1.6479,0.0
1796103,0.7539,0.0107,0.623,0.5493,-1.4648,0.3052
1796123,0.7531,0.0094,0.6243,0.8545,-1.5869,0.3662
1796147,0.7516,0.0084,0.6252,0.7935,-1.8311,0.1831
1796167,0.7542,0.012,0.6252,0.7324,-1.5259,0.3662
1796187,0.7513,0.0118,0.6292,0.8545,-1.4038,0.1221
1796207,0.7527,0.011,0.63,0.9155,-1.4648,0.1831
1796227,0.7546,0.0096,0.6287,0.9155,-1.5259,0.3052
1796248,0.7509,0.0099,0.6273,1.1597,-1.6479,0.2441
1796269,0.7513,0.0066,0.6266,1.0986,-1.4648,0.3052
1796289,0.7505,0.0073,0.6306,0.8545,-1.5259,0.2441
1796309,0.7467,0.0084,0.632,0.6714,-1.709,0.4883
1796330,0.7466,0.0084,0.6321,0.4883,-1.6479,0.5493
1796350,0.7448,0.0071,0.6353,0.5493,-1.5869,0.7324
1796370,0.7432,0.0055,0.635,0.3662,-1.709,0.7324
1796390,0.7444,0.0015,0.6342,-0.061,-1.2817,0.7324
1796411,0.7407,0.0042,0.635,-0.3662,-1.2817,0.6104
1796431,0.7369,0.012,0.6384,-0.061,-0.9766,0.3662
1796451,0.7394,0.0161,0.6376,0.2441,-0.8545,0.6714
1796471,0.7419,0.0135,0.6368,0.4272,-0.6104,0.6104
1796491,0.7432,0.0128,0.6378,0.4272,-0.9155,0.6714
1796511,0.7424,0.0121,0.6376,0.0,-0.4883,0.4883
1796531,0.7418,0.0127,0.6375,0.1831,-0.6104,0.6104
1796551,0.7417,0.0126,0.639,0.1221,-0.5493,0.5493
1796571,0.7422,0.0162,0.6378,0.3662,-0.4272,0.6104
1796595,0.7432,0.0165,0.6349,0.6714,-0.2441,0.7935
1796615,0.7441,0.0155,0.6359,0.7935,0.2441,1.0376
1796635,0.7456,0.0153,0.6367,0.6104,0.2441,0.9155
1796658,0.7443,0.0133,0.6328,0.4883,0.1831,1.0376
1796678,0.7465,0.011,0.6318,0.5493,0.2441,0.7935
1796698,0.7462,0.0126,0.632,0.4883,0.7324,0.5493
1796718,0.7483,0.0177,0.6279,0.4272,0.7324,0.4272
1796742,0.7505,0.0127,0.6272,0.5493,0.4272,0.4272
1796762,0.7513,0.0161,0.6262,0.1221,0.3662,0.1831
1796782,0.7512,0.0195,0.6255,0.4272,-0.3052,0.2441
1796802,0.7509,0.015,0.6268,0.3052,-0.3662,0.4272
1796822,0.7546,0.0143,0.631,0.4883,-0.3662,0.3662
1796842,0.7552,0.0173,0.6288,0.4272,-0.7324,0.3052
1796864,0.7534,0.0168,0.6282,0.5493,-0.6714,0.3052
1796884,0.751,0.0183,0.6282,0.5493,-0.4883,0.5493
1796904,0.751,0.0186,0.6283,0.4883,-0.4272,0.3052
1796925,0.7489,0.0172,0.6256,0.9155,-0.4272,0.2441
1796985,0.7466,0.0133,0.6272,0.9155,-0.6104,0.4883
1797019,0.7494,0.015,0.6311,0.7935,-0.7935,0.4883
1797079,0.7496,0.0155,0.6328,0.8545,-1.0986,0.3052
1797099,0.7499,0.0115,0.6306,0.8545,-0.9766,0.4883
1797119,0.7476,0.0107,0.6357,1.0376,-0.9766,0.4883
1797139,0.7458,0.0129,0.632,0.6104,-0.7324,0.7935
1797159,0.7439,0.0148,0.6301,0.7935,-0.7324,0.7935
1797179,0.7443,0.012,0.6302,0.7935,-0.3052,0.7324
1797199,0.746,0.0135,0.63,0.6104,-0.061,0.7935
1797219,0.7456,0.0156,0.6312,0.5493,-0.4883,0.6104
1797239,0.7458,0.0165,0.6318,0.6104,-0.5493,0.4883
1797260,0.7476,0.0166,0.631,0.5493,-0.6714,0.4272
1797280,0.7472,0.0164,0.6326,0.7324,-0.4883,0.5493
1797300,0.7473,0.0159,0.6348,0.6714,-0.4272,0.4883
1797321,0.7473,0.0182,0.6339,0.5493,-0.4272,0.4883
1797341,0.7476,0.0182,0.6339,0.6104,-0.5493,0.6104
1797361,0.7452,0.0164,0.6329,0.9766,-0.4272,0.6104
1797381,0.7454,0.0144,0.631,0.9766,-0.2441,0.6104
1797401,0.7472,0.0175,0.6301,0.8545,-0.3052,0.4883
1797421,0.7468,0.0166,0.6306,0.7324,-0.3662,0.5493
1797441,0.7471,0.017,0.6301,0.6104,-0.3052,0.7324
1797461,0.7449,0.0156,0.631,0.7935,-0.2441,0.7324
1797481,0.7472,0.016,0.6305,0.6714,-0.3662,0.6104
1797501,0.7482,0.0157,0.6302,0.6104,-0.3052,0.3662
1797523,0.7485,0.0178,0.63,0.4883,-0.2441,0.4272
1797543,0.7494,0.0154,0.6302,0.6104,-0.2441,0.2441
1797563,0.7512,0.0167,0.6281,0.5493,-0.1831,0.3662
1797583,0.7513,0.0167,0.6276,0.3052,-0.5493,0.3052
1797603,0.7489,0.0145,0.6276,0.4272,-0.7324,0.4272
1797623,0.7512,0.0123,0.63,0.4883,-0.7324,0.5493
1797643,0.7521,0.0146,0.6301,0.2441,-0.8545,0.3662
1797663,0.7509,0.0148,0.6313,0.3662,-0.9766,0.5493
1797683,0.7467,0.0146,0.6332,0.4272,-0.6714,0.4272
1797703,0.7473,0.0182,0.6328,0.2441,-0.6714,0.4883
1797723,0.7457,0.0182,0.6316,0.2441,-0.6714,0.5493
1797747,0.744,0.0173,0.6309,0.4883,-0.5493,0.6104
1797767,0.7446,0.0179,0.6296,0.3052,-0.4883,0.4883
1797787,0.745,0.0183,0.631,0.6714,-0.4272,0.6714
1797811,0.7439,0.0189,0.6313,0.7935,-0.4883,0.7324
1797831,0.7448,0.0184,0.6315,0.9766,-0.3662,0.7935
1797851,0.7456,0.0188,0.6338,0.8545,-0.6104,0.8545
1797871,0.7463,0.0188,0.6313,0.6104,-0.3052,0.9155
1797891,0.7474,0.0201,0.6326,0.7324,-0.5493,0.7935
1797911,0.748,0.0176,0.6332,0.9155,-0.4272,0.7935
1797931,0.7493,0.0193,0.6317,0.7935,-0.4272,0.5493
1797951,0.7472,0.0215,0.6312,0.8545,-0.4272,0.7935
1797971,0.7472,0.0228,0.6307,0.7935,-0.5493,0.8545
1797991,0.7471,0.02,0.6296,0.7935,-0.5493,0.9155
1798011,0.7479,0.0179,0.6279,0.6714,-0.3662,0.3662
1798031,0.7494,0.0188,0.6272,0.7935,-0.061,0.0
1798051,0.7501,0.0199,0.6273,0.6104,-0.2441,-0.1831
1798071,0.7485,0.0201,0.6294,0.7935,-0.4883,-0.1221
1798091,0.748,0.0193,0.6302,0.5493,-0.4272,0.0
1798111,0.7474,0.0187,0.632,0.4272,-0.6104,0.061
1798131,0.7471,0.0181,0.6331,0.4272,-0.4272,0.1831
1798151,0.7471,0.0204,0.6337,0.4883,-0.5493,0.3052
1798171,0.7471,0.0189,0.6328,0.8545,-0.3662,0.3662
1798191,0.7479,0.0187,0.6321,0.8545,-0.4883,0.3662
1798211,0.748,0.0209,0.6305,0.9766,-0.6104,0.3052
1798233,0.7455,0.0203,0.6307,0.9766,-0.6104,0.5493
1798253,0.7456,0.019,0.6294,0.9766,-0.4883,0.4272
1798273,0.7466,0.0181,0.6302,1.0986,-0.6104,0.5493
1798293,0.7467,0.0166,0.6331,0.9766,-0.6104,0.4883
1798313,0.7456,0.0168,0.6317,1.0986,-0.7324,0.4883
1798333,0.7476,0.0164,0.6316,0.8545,-0.6104,0.3662
1798353,0.7482,0.0164,0.6309,0.6714,-0.4883,0.2441
1798373,0.7478,0.0189,0.6305,0.7935,-0.4883,0.1221
1798393,0.749,0.0157,0.6296,0.5493,-0.3052,0.0
1798413,0.7484,0.0177,0.6302,0.5493,-0.4883,0.061
1798433,0.7471,0.0205,0.6305,0.5493,-0.6714,0.0
1798456,0.7467,0.0146,0.6311,0.4883,-0.6104,0.061
1798477,0.7469,0.0144,0.6337,0.4272,-0.6714,0.1831
1798497,0.7488,0.0211,0.6327,0.4272,-0.7324,0.1221
1798521,0.7463,0.0195,0.6351,0.5493,-0.6714,0.2441
1798541,0.7468,0.0201,0.635,0.5493,-0.6104,0.5493
1798561,0.7455,0.0204,0.634,0.8545,-0.3662,0.2441
1798581,0.7435,0.0188,0.6321,0.8545,-0.2441,0.2441
1798601,0.7437,0.0187,0.6312,0.8545,-0.061,0.2441
1798621,0.7445,0.0162,0.631,1.0376,-0.061,0.3662
1798641,0.7449,0.0154,0.6305,0.9766,0.061,0.4883
1798661,0.7462,0.0162,0.6312,0.9155,-0.3052,0.6104
1798681,0.7498,0.016,0.6305,1.0376,-0.1831,0.6104
1798702,0.7499,0.0155,0.6318,0.8545,-0.4883,0.3662
1798722,0.7487,0.0167,0.6326,0.4883,-0.3052,0.2441
1798742,0.7472,0.0186,0.6323,0.4883,-0.3052,0.3052
1798763,0.7491,0.0151,0.6321,0.3662,0.1221,0.1831
1798783,0.7513,0.0161,0.6283,0.2441,0.0,0.061
1798803,0.7484,0.016,0.6277,0.7324,-0.1221,0.1831
1798823,0.7489,0.017,0.6282,0.6714,-0.2441,0.4272
1798843,0.7468,0.0173,0.6292,0.6714,-0.3662,0.4883
1798863,0.7477,0.0167,0.6287,0.6714,-0.2441,0.4272
1798886,0.7482,0.0161,0.627,0.2441,0.2441,0.2441
1798906,0.7496,0.0177,0.6279,0.3662,0.4272,0.1831
1798926,0.7501,0.0198,0.6282,0.5493,0.0,0.1831
1798946,0.7499,0.0178,0.6282,0.5493,0.061,0.2441
1798966,0.7493,0.0183,0.6283,0.7324,0.1221,0.1221
1798986,0.751,0.0176,0.6239,1.0376,-0.1831,0.4883
1799006,0.7491,0.019,0.6299,1.0986,-0.6714,0.6104
1799030,0.751,0.0198,0.6305,1.3428,-0.3052,0.3662
1799050,0.75,0.0199,0.6299,1.2817,-0.2441,0.6104
1799070,0.7509,0.0192,0.63,1.3428,-0.1831,0.6714
1799091,0.7477,0.0157,0.6285,1.2207,-0.1221,0.4272
1799111,0.7484,0.0168,0.6282,1.4648,0.1221,0.4883
1799133,0.7485,0.0172,0.6289,1.0986,-0.061,0.7324
1799153,0.7483,0.0162,0.6293,1.0986,-0.1221,0.6714
1799174,0.7495,0.014,0.6271,0.6714,0.061,0.7324
1799194,0.7489,0.0143,0.6279,0.5493,0.1221,0.6104
1799214,0.7488,0.0157,0.6272,0.4272,0.0,0.6104
1799234,0.7517,0.0166,0.6261,0.2441,0.1831,0.3662
1799254,0.7515,0.015,0.6263,0.1831,0.4272,0.0
1799274,0.7527,0.0198,0.6252,0.0,0.5493,-0.061
1799294,0.7524,0.0212,0.6271,0.3052,0.1831,0.1221
1799314,0.7534,0.0175,0.6299,0.2441,-0.4272,0.2441
1799334,0.7548,0.0173,0.63,0.4883,-0.4272,0.1831
1799354,0.755,0.0212,0.6257,0.3052,-0.7324,0.061
1799374,0.7506,0.0204,0.6279,0.4272,-0.4272,0.061
1799394,0.7501,0.019,0.6265,0.6104,-0.2441,0.1831
1799414,0.7501,0.0186,0.623,0.8545,0.0,0.1221
1799434,0.7501,0.0178,0.6237,0.9766,-0.4883,0.1221
1799454,0.7484,0.0177,0.6232,0.7324,-0.4883,0.2441
1799474,0.7479,0.0173,0.6254,0.7935,-0.7324,0.3662
1799494,0.7479,0.0165,0.6271,0.8545,-0.7935,0.4883
1799514,0.7493,0.0167,0.6273,0.7324,-0.6104,0.5493
1799536,0.7537,0.0193,0.6276,0.6104,-0.5493,0.3052
1799556,0.7529,0.0193,0.6309,0.7935,-0.8545,0.5493
1799576,0.7507,0.0205,0.6298,0.9766,-0.9766,0.4272
1799596,0.7488,0.0178,0.6285,0.7935,-0.8545,0.3662
1799616,0.7506,0.0173,0.6302,0.6714,-0.7324,0.3052
1799636,0.7491,0.0176,0.6263,0.7324,-0.7324,0.3052
1799656,0.7473,0.0182,0.6256,0.7935,-0.6104,0.3662
1799696,0.7483,0.0165,0.6272,0.5493,-0.3662,0.4272
1799716,0.7501,0.0154,0.6274,0.5493,-0.2441,0.1831
1799736,0.7507,0.0159,0.6276,0.5493,-0.3662,0.1221
1799756,0.75,0.0178,0.6274,0.4883,-0.5493,0.1831
1799780,0.7509,0.0165,0.629,0.7324,-0.4883,0.1831
1799800,0.7515,0.017,0.6284,0.4883,-0.4272,0.061
1799820,0.7515,0.0179,0.6281,0.3052,-0.3052,0.1831
1799842,0.7516,0.0179,0.6281,0.6104,-0.3662,0.2441
1799862,0.7516,0.0188,0.6279,0.7935,-0.6104,0.2441
1799882,0.7499,0.0194,0.6274,0.8545,-0.4272,0.4883
1799902,0.7494,0.0187,0.6268,0.6714,-0.6104,0.3662
1799922,0.75,0.0188,0.6294,0.8545,-0.4883,0.5493
1799942,0.7489,0.0175,0.6265,0.7324,-0.5493,0.6104
1799962,0.7494,0.0179,0.6278,0.7935,-0.4272,0.7935
1799982,0.7489,0.0181,0.6294,0.8545,-0.5493,0.6714
1800005,0.7509,0.0177,0.6274,1.1597,-0.4272,0.8545
1800025,0.7512,0.0188,0.6282,1.0376,-0.6714,0.6714
1800045,0.751,0.0178,0.6274,1.0376,-0.4272,0.6104
1800065,0.7506,0.0193,0.6281,0.7935,-0.4883,0.6104
1800085,0.7499,0.0177,0.6273,0.9766,-0.6104,0.6104
1800109,0.752,0.0149,0.6274,0.7324,-0.6104,0.6714
1800129,0.754,0.0137,0.629,0.7935,-0.7324,0.3662
1800149,0.7538,0.0176,0.6294,0.8545,-0.9766,0.1831
1800169,0.7498,0.0193,0.6316,0.7324,-1.0376,0.3052
1800189,0.7467,0.0209,0.632,0.7935,-0.9155,0.5493
1800213,0.7451,0.0208,0.631,0.7935,-0.6714,0.4883
1800233,0.7441,0.0187,0.6299,0.9155,-0.6104,0.4272
1800253,0.7443,0.0181,0.6281,0.6104,-0.061,0.3052
1800273,0.7471,0.0184,0.6276,0.9155,-0.3052,0.3052
1800293,0.7471,0.0178,0.6289,1.0376,-0.5493,0.3052
1800313,0.749,0.0184,0.629,1.0376,-0.4272,0.6714
1800336,0.7504,0.0187,0.6283,0.9766,-0.6104,0.6104
1800356,0.7501,0.0189,0.6313,1.0986,-0.8545,0.7324
1800376,0.7483,0.0215,0.6302,1.4038,-0.7935,0.6104
1800396,0.7494,0.015,0.6301,1.5259,-0.5493,0.7324
1800417,0.7512,0.0142,0.6285,1.2207,-0.3662,0.7935
1800437,0.7526,0.0178,0.6281,1.2207,-0.3052,0.4272
1800457,0.7498,0.0193,0.6288,1.4648,-0.4883,0.6104
1800477,0.751,0.0181,0.6273,1.4038,-0.6714,0.7324
1800501,0.7493,0.0165,0.6284,1.1597,-0.6714,0.7935
1800521,0.7478,0.0166,0.629,1.2207,-0.5493,0.6104
1800541,0.7478,0.0165,0.63,0.9766,-0.4883,0.6104
1800561,0.7498,0.0145,0.6298,0.9766,-0.3052,0.3052
1800581,0.7509,0.0157,0.6295,0.7935,-0.7324,0.3662
1800601,0.7499,0.0166,0.6301,1.0376,-0.7935,0.2441
1800621,0.7477,0.0164,0.6287,0.9155,-0.8545,0.3052
1800641,0.7489,0.0168,0.6304,0.7324,-0.6104,0.3662
1800661,0.7495,0.0159,0.6311,0.7324,-0.6714,0.2441
1800681,0.7483,0.0151,0.6318,0.9766,-0.5493,0.1831
1800701,0.7466,0.0156,0.6321,0.8545,-0.5493,0.2441
1800722,0.7462,0.0162,0.6309,0.6104,-0.6714,0.3052
1800742,0.7473,0.0173,0.631,0.6714,-0.4883,0.3662
1800764,0.7478,0.0177,0.6304,0.5493,-0.5493,0.4272
1800784,0.7482,0.0175,0.6287,0.6104,-0.6104,0.3052
1800804,0.7479,0.014,0.6265,0.7935,-0.4883,0.3662
1800824,0.7499,0.0139,0.6294,0.7324,-0.6714,0.3662
1800844,0.7465,0.0142,0.6318,0.7324,-0.6104,0.4272
1800864,0.745,0.0143,0.6335,0.7324,-0.6104,0.6104
1800884,0.7448,0.0156,0.634,0.4883,-0.4883,0.7935
1800905,0.7457,0.0178,0.6344,0.7935,-0.7935,0.7935
1800925,0.7467,0.0204,0.6329,0.7324,-0.3662,0.7324
1800945,0.7473,0.0157,0.6302,0.8545,-0.6104,0.6104
1800965,0.7473,0.0173,0.63,0.9155,-0.5493,0.3662
1800985,0.7468,0.0198,0.626,0.9155,-0.5493,0.4272
1801005,0.7473,0.0146,0.6281,1.0376,-1.0986,0.3662
1801025,0.7445,0.0135,0.6364,1.0986,-0.9155,0.5493
1801045,0.7507,0.0184,0.63,0.7324,-0.7324,0.3052
1801065,0.752,0.0166,0.6338,0.9155,-0.7324,0.4883
1801087,0.7491,0.0149,0.6354,0.9155,-0.6714,0.4272
1801107,0.7477,0.0161,0.6339,1.0376,-0.3662,0.6714
1801130,0.744,0.0164,0.6331,0.8545,-0.4272,0.6104
1801150,0.7424,0.0167,0.6334,1.0986,-0.3662,0.6104
1801170,0.7437,0.0177,0.6311,0.9155,-0.1221,0.6104
1801191,0.7449,0.0165,0.629,0.8545,-0.1221,0.6104
1801211,0.7471,0.016,0.6262,0.7324,-0.1221,0.4883
1801231,0.7476,0.016,0.6323,0.7324,-0.4883,0.4272
1801251,0.7461,0.0165,0.6332,1.0376,-0.4883,0.3662
1801271,0.7495,0.0166,0.6313,0.7935,-0.7324,0.6104
1801291,0.7501,0.0184,0.6299,0.7935,-0.6104,0.4883
1801311,0.7513,0.0143,0.6273,0.5493,-0.1221,0.6104
1801331,0.7543,0.0127,0.6265,0.5493,-0.3052,0.1831
1801351,0.7542,0.0161,0.6256,0.2441,-0.5493,0.3052
1801371,0.751,0.0165,0.626,0.3662,-0.7935,0.5493
1801392,0.7507,0.0179,0.6283,0.2441,-1.0376,0.4883
1801412,0.7465,0.0206,0.6304,0.4272,-0.9766,0.5493
1801432,0.7469,0.0188,0.629,0.2441,-1.3428,0.4883
1801452,0.7478,0.0146,0.6301,0.4883,-1.0376,0.3662
1801472,0.7484,0.0187,0.6304,0.6104,-0.9155,0.4272
1801492,0.7477,0.0189,0.6344,0.4883,-1.2817,0.4272
1801514,0.7444,0.0199,0.6335,0.9155,-1.2817,0.2441
1801534,0.7433,0.0183,0.6351,1.1597,-1.3428,0.9155
1801554,0.7434,0.0193,0.6378,1.0376,-1.2207,0.9766
1801574,0.7419,0.0205,0.6381,1.0376,-1.2207,1.0376
1801594,0.7416,0.0201,0.6385,0.9155,-1.2207,0.9155
1801614,0.7418,0.0194,0.6362,1.0376,-1.2207,0.9155
1801634,0.7391,0.0178,0.6384,1.0986,-1.2207,0.7324
1801654,0.7382,0.0184,0.6395,1.3428,-0.9155,0.7324
1801678,0.7391,0.0194,0.6392,0.9766,-0.7935,0.7324
1801698,0.7406,0.0173,0.6378,0.9766,-0.7324,0.6714
1801718,0.7415,0.0149,0.6394,0.9766,-0.5493,0.6714
1801738,0.7404,0.015,0.6401,0.7935,-0.5493,0.6104
1801758,0.7389,0.0159,0.6404,0.3052,-0.2441,0.4883
1801778,0.7396,0.0161,0.639,0.3662,-0.2441,0.4272
1801798,0.7406,0.0192,0.6384,0.6714,-0.1831,0.5493
1801818,0.7422,0.0217,0.6365,0.7324,-0.1221,0.3662
1801838,0.7423,0.0199,0.6372,0.6104,-0.1221,0.3052
1801858,0.7448,0.0197,0.6365,0.6714,-0.1221,0.1831
1801880,0.7445,0.0254,0.6349,0.4883,-0.1831,0.1831
1801900,0.7423,0.0184,0.6338,0.9155,-0.061,0.3662
1801920,0.7444,0.0156,0.6382,0.9766,0.3052,0.4272
1801940,0.744,0.02,0.6376,0.9766,-0.3662,0.5493
1801960,0.7439,0.0177,0.6401,1.0986,-0.3662,0.5493
1801980,0.744,0.0186,0.6376,1.2207,0.1221,0.7324
1802000,0.7466,0.0195,0.6383,1.2207,0.1831,0.6714
1802020,0.7446,0.0199,0.6351,1.1597,0.2441,0.4883
1802043,0.741,0.0186,0.6356,1.0986,0.6714,0.3052
1802063,0.7404,0.0198,0.6339,1.0376,0.4883,0.4272
1802083,0.7394,0.0155,0.6338,0.9766,0.061,0.3662
1802105,0.7443,0.0129,0.6309,0.6104,0.3662,0.3662
1802125,0.7458,0.0155,0.6333,0.3662,0.3662,0.3662
1802145,0.7484,0.0162,0.6342,0.3052,0.3052,0.4883
1802166,0.7494,0.0192,0.6333,0.1831,0.1221,0.4272
1802189,0.7452,0.0227,0.6294,0.1221,-0.5493,0.4883
1802209,0.7456,0.0259,0.6287,-0.061,-0.9155,0.7935
1802229,0.748,0.0292,0.632,0.1221,-0.9766,0.7935
1802249,0.748,0.0199,0.6322,0.2441,-1.2817,0.8545
1802270,0.7473,0.0188,0.6342,0.6714,-1.2207,0.9155
1802290,0.7485,0.0181,0.6337,0.7324,-1.0986,0.8545
1802310,0.7488,0.0171,0.6337,0.6104,-0.6714,0.9155
1802330,0.7507,0.0197,0.6332,0.5493,-0.7935,0.9155
1802350,0.7467,0.0234,0.6324,0.6714,-0.9155,1.2817
1802370,0.7446,0.0242,0.6345,1.4038,-0.8545,1.2207
1802390,0.7373,0.022,0.6376,2.0752,-0.6714,1.8311
1802410,0.7374,0.0223,0.6364,2.0142,0.0,1.709
1802433,0.7454,0.0143,0.6331,1.77,0.6714,1.8921
1802453,0.7527,0.0126,0.6332,1.5259,1.0376,1.77
1802473,0.754,0.0154,0.6285,0.5493,1.0376,1.3428
1802493,0.7484,0.0198,0.6293,-0.3052,0.6714,0.4883
1802515,0.75,0.0168,0.6304,-0.7324,1.3428,0.3052
1802535,0.7504,0.0156,0.6333,-0.9766,1.0986,-0.2441
1802556,0.751,0.0192,0.6304,-1.1597,1.2817,-0.4272
1802579,0.7523,0.0215,0.63,-1.2207,1.1597,-0.5493
1802599,0.7478,0.0211,0.631,-0.9155,0.9766,-0.5493
1802619,0.7482,0.0238,0.6285,-1.0986,0.9155,-0.4272
1802639,0.7471,0.0237,0.629,-1.0986,0.8545,-0.6104
1802662,0.7476,0.025,0.6304,-1.2207,0.6714,-0.7935
1802682,0.7474,0.0331,0.6259,-0.7935,0.4272,-0.4272
1802702,0.7462,0.0336,0.6283,-0.3052,-0.2441,-0.2441
1802722,0.7472,0.0306,0.6256,-0.2441,-0.4272,0.0
1802742,0.7533,0.0284,0.6322,-0.1221,-0.4272,0.1221
1802763,0.7529,0.0299,0.6311,0.7324,-0.5493,0.3052
1802783,0.7506,0.0305,0.6281,0.9766,-0.7935,0.3662
1802805,0.7473,0.03,0.6282,1.2817,-0.7935,0.4272
1802825,0.7472,0.0282,0.6278,1.3428,-0.7324,0.9766
1802848,0.7467,0.0253,0.6279,1.6479,-0.8545,0.8545
1802868,0.7456,0.0198,0.6278,1.4038,-0.7935,0.6714
1802888,0.7477,0.0203,0.6262,1.5259,-1.0376,0.5493
1802908,0.7487,0.0193,0.627,0.9766,-1.0376,0.6104
1802929,0.7446,0.0208,0.631,0.7324,-1.2817,0.6104
1802949,0.744,0.0204,0.6329,0.7324,-1.1597,0.7935
1802969,0.7466,0.0223,0.6338,0.4272,-1.1597,0.5493
1802989,0.7491,0.0254,0.6346,0.4272,-1.2207,0.3662
1803009,0.7507,0.0225,0.6337,0.4272,-1.0986,0.3662
1803029,0.7487,0.0238,0.6348,0.3052,-1.2817,0.1831
1803049,0.7485,0.0247,0.6287,0.1831,-1.3428,0.061
1803069,0.7423,0.0264,0.6305,0.061,-1.1597,0.061
1803089,0.7417,0.0266,0.6322,0.1221,-1.0376,0.061
1803109,0.7429,0.025,0.6331,0.3662,-1.0986,0.3052
1803129,0.7462,0.0255,0.6324,0.3052,-0.9155,0.1831
1803149,0.7467,0.0273,0.6318,0.8545,-0.4883,0.3662
1803169,0.7433,0.0266,0.6334,0.9155,-0.5493,0.2441
1803230,0.745,0.0255,0.6343,0.6104,-0.7324,0.4272
1803250,0.7482,0.026,0.6324,1.0376,-0.5493,0.3052
1803270,0.7468,0.0276,0.6312,1.0986,-0.4272,0.0
1803290,0.7426,0.0283,0.6349,1.2207,-0.3662,-0.1831
1803310,0.7427,0.0277,0.6338,1.2207,-0.4272,-0.061
1803330,0.7451,0.0238,0.6339,1.3428,-0.2441,-0.061
1803350,0.7477,0.0211,0.6345,1.0986,-0.1831,-0.1221
1803370,0.7471,0.0215,0.6349,0.4272,0.0,-0.3662
1803390,0.7426,0.0197,0.6339,0.6714,-0.1221,-0.5493
1803410,0.7406,0.0181,0.6332,0.6104,0.3662,-0.4883
1803431,0.7424,0.019,0.632,0.4272,0.5493,-0.6104
1803451,0.7467,0.0204,0.6312,0.3052,0.3662,-0.6104
1803471,0.7468,0.0199,0.6307,0.061,0.061,-0.3662
1803491,0.7472,0.0162,0.6296,0.0,-0.2441,-0.4883
1803531,0.7527,0.0228,0.6309,0.061,-0.061,-0.4272
1803551,0.754,0.0237,0.6307,0.4272,-0.1831,-0.1831
1803571,0.7501,0.0238,0.6335,0.3662,-0.1831,0.0
1803591,0.7479,0.0244,0.6346,0.6104,0.061,0.1831
1803612,0.7478,0.0229,0.6315,1.0986,-0.061,0.3662
1803632,0.7478,0.0225,0.6265,1.3428,-0.061,0.1831
1803652,0.7469,0.0244,0.6265,1.5259,0.0,0.4272
1803672,0.7476,0.0219,0.6265,1.5869,-0.3052,0.4272
1803692,0.7476,0.0189,0.6263,1.5259,-0.4883,0.4883
1803712,0.7506,0.0193,0.6271,1.4038,-0.3662,0.6714
1803733,0.754,0.0192,0.6284,1.8311,-0.3052,0.7935
1803753,0.7512,0.0219,0.6306,1.3428,-0.6714,0.4883
1803773,0.7507,0.0184,0.63,1.3428,-0.5493,0.6104
1803793,0.7509,0.0143,0.6322,1.6479,-0.7324,0.6714
1803813,0.7509,0.0177,0.6292,1.5259,-0.6714,0.6104
1803833,0.7491,0.0203,0.6305,1.4038,-0.4883,0.6104
1803853,0.7505,0.0188,0.6274,1.4038,-0.5493,0.4883
1803873,0.7499,0.0167,0.6271,1.1597,-0.2441,0.3052
1803893,0.75,0.0173,0.6261,0.7935,-0.3052,0.4883
1803913,0.7491,0.0194,0.6266,0.7324,-0.4883,0.061
1803933,0.7472,0.0172,0.6299,0.6104,-0.4272,0.1831
1803956,0.7479,0.0172,0.631,0.6714,-0.5493,-0.061
1803976,0.7498,0.0189,0.6289,0.6714,-0.7324,-0.061
1803999,0.75,0.0195,0.6292,0.7324,-0.6104,0.2441
1804019,0.7512,0.0197,0.6298,0.6714,-1.0986,0.1831
1804039,0.7478,0.0192,0.6317,1.0986,-1.0376,0.4883
1804059,0.7473,0.0165,0.6333,1.0986,-1.0376,0.5493
1804079,0.7452,0.0171,0.6355,1.0376,-0.9155,0.6714
1804100,0.7434,0.0165,0.6357,1.1597,-1.0376,0.6714
1804120,0.7413,0.0164,0.6346,0.9766,-0.9155,0.6714
1804140,0.7476,0.0192,0.6316,1.0376,-0.7935,0.4883
1804160,0.7479,0.0208,0.6318,1.0376,-0.6714,0.5493
1804180,0.7466,0.0179,0.6334,1.4648,-0.7324,0.6104
1804200,0.7506,0.0176,0.6298,1.1597,-0.8545,0.4883
1804220,0.7472,0.0192,0.6311,1.2207,-0.6104,0.3662
1804240,0.7451,0.0132,0.6294,1.3428,-0.6104,0.4883
1804260,0.7437,0.0107,0.6255,1.2817,-0.2441,0.1831
1804281,0.7599,0.0188,0.6393,1.1597,0.0,0.3662
1804301,0.7644,0.0197,0.6447,1.2817,-3.1128,0.6104
1804321,0.7517,0.0206,0.6405,1.4038,-1.8921,1.2817
1804341,0.741,0.0179,0.6381,1.6479,-1.77,1.709
1804361,0.7308,0.0132,0.6365,1.4648,-1.0986,1.0376
1804381,0.7238,0.0132,0.6338,1.4648,-0.3662,0.6714
1804401,0.726,0.0143,0.6312,1.2817,0.4272,0.1831
1804421,0.7385,0.0128,0.6306,0.7935,0.9155,0.1221
1804441,0.7428,0.0105,0.6302,0.5493,0.7935,0.4272
1804461,0.7472,0.011,0.631,0.0,-0.2441,0.3052
1804482,0.7498,0.0153,0.635,-0.3052,-0.4272,0.1831
1804502,0.7517,0.0189,0.6359,-0.4883,-0.4272,-0.1831
1804522,0.7529,0.022,0.6373,-0.6104,-0.3662,-0.4883
1804542,0.7522,0.0225,0.6328,-0.3662,0.061,-0.5493
1804562,0.7542,0.0256,0.631,-0.2441,0.061,-0.2441
1804582,0.7561,0.0278,0.6279,-0.2441,-0.2441,-0.1831
1804603,0.752,0.0271,0.6301,0.3052,-0.8545,0.1221
1804627,0.7477,0.0245,0.6326,0.3662,-0.7935,0.2441
1804650,0.7407,0.0248,0.6327,0.8545,-0.6104,0.2441
1804670,0.7388,0.0248,0.6311,1.3428,-0.6714,0.1831
1804690,0.7393,0.0177,0.63,1.2817,-0.3052,0.1221
1804711,0.7391,0.0125,0.6305,1.2817,-0.1221,0.061
1804732,0.7468,0.0164,0.6332,0.7324,-0.061,-0.3662
1804752,0.7515,0.0186,0.6338,0.4883,-0.2441,-0.6104
1804772,0.751,0.0208,0.6365,0.4883,-0.6104,-1.2817
1804792,0.7517,0.0178,0.6344,0.6714,-0.4883,-1.5259
1804812,0.7498,0.0198,0.6343,1.2817,-0.4272,-1.5259
1804832,0.7325,0.0291,0.6458,1.0376,-0.3662,-1.77
1804852,0.7334,0.0291,0.6417,1.4648,0.1221,-1.77
1804872,0.7394,0.0095,0.6323,2.3804,0.6104,-1.0986
1804892,0.7437,-0.0007,0.6294,3.2959,0.4883,0.4883
1804912,0.7423,-0.0026,0.6387,3.418,0.3052,1.5259
1804932,0.7366,0.0126,0.6439,2.6855,0.0,2.0142
1804953,0.7393,0.0173,0.6378,2.5635,1.1597,1.2207
1804973,0.7579,0.009,0.6262,1.8921,1.8921,0.4272
1804993,0.7688,0.0074,0.6179,1.5259,1.3428,-0.3662
1805013,0.7646,0.0123,0.6196,0.9155,0.1831,-0.9766
1805033,0.7583,0.0128,0.6194,0.4272,-0.3052,-1.3428
1805057,0.7546,-0.0035,0.6243,0.061,-0.061,-1.6479
1805077,0.7562,-0.0011,0.6229,-1.0376,-0.2441,-1.6479
1805097,0.7593,0.005,0.6246,-0.8545,-0.6714,-1.5869
1805118,0.7573,0.0079,0.6255,-0.8545,-0.8545,-1.2817
1805138,0.7515,0.0117,0.6311,-1.0376,-1.5869,-0.7935
1805158,0.7593,0.0129,0.6223,-0.5493,-1.8921,-0.3662
1805178,0.7638,0.012,0.6134,0.2441,-1.8311,0.2441
1805198,0.7618,0.0175,0.6176,1.3428,-2.3804,1.0986
1805218,0.7534,0.0187,0.6254,1.5869,-2.9297,1.6479
1805238,0.7478,0.0099,0.6276,1.77,-2.9907,1.9531
1805258,0.7471,0.0093,0.6261,2.4414,-3.1128,2.1973
1805278,0.7412,0.0116,0.6361,2.2583,-3.418,1.9531
1805300,0.733,0.0121,0.6516,2.4414,-3.1128,2.0752
1805320,0.7274,0.0128,0.6569,2.0142,-2.0752,1.4648
1805340,0.735,0.012,0.6412,1.9531,-1.0986,0.3662
1805360,0.7428,0.0063,0.6501,2.5024,-0.7324,0.061
1805383,0.7432,0.0009,0.6473,2.9297,-0.8545,0.1221
1805403,0.7332,0.0087,0.6489,3.2959,-1.709,0.6714
1805423,0.7374,0.0117,0.6387,3.2349,-2.0142,1.2817
1805443,0.7351,0.0026,0.6343,3.54,-2.3804,2.3193
1805463,0.7367,0.0006,0.6465,3.479,-2.0752,2.7466
1805484,0.7345,0.0031,0.6479,3.3569,-2.3193,3.0518
1805505,0.7358,0.0093,0.6487,3.3569,-1.5869,2.5635
1805525,0.7321,0.0084,0.6475,2.8687,-1.5869,2.3193
1805545,0.7314,0.007,0.6473,2.5635,-1.2817,1.8921
1805565,0.7396,0.0002,0.6401,1.8311,-0.4883,1.3428
1805585,0.7405,0.0009,0.6423,1.6479,-0.5493,1.2207
1805605,0.7345,0.0021,0.6411,1.1597,-0.9155,1.1597
1805625,0.7319,-0.0005,0.6384,1.3428,-0.9766,1.3428
1805645,0.7292,0.0013,0.6487,1.2817,-0.1831,1.2207
1805665,0.7362,0.0021,0.6455,1.2207,0.6104,1.4038
1805685,0.7428,0.0016,0.6476,1.2817,0.7935,1.4038
1805705,0.7382,0.0038,0.6434,1.0986,0.6104,1.1597
1805725,0.7379,0.0055,0.6458,0.9155,1.0376,0.6104
1805746,0.7401,0.0084,0.647,0.6104,1.5869,0.0
1805766,0.7476,0.006,0.6361,0.6104,1.2207,-0.9766
1805786,0.7487,-0.001,0.6316,0.3052,0.9766,-1.5259
1805807,0.75,-0.0024,0.6296,-0.061,0.6714,-1.4648
1805827,0.7473,0.0033,0.6338,-0.5493,-0.4272,-0.9155
1805848,0.7397,0.0115,0.6406,-0.7324,-0.7935,-1.1597
1805868,0.7412,0.0029,0.6346,-0.8545,-0.6104,-1.2207
1805888,0.7516,-0.0005,0.635,-0.4883,-0.4883,-1.2817
1805909,0.7502,0.0062,0.6337,0.3052,-0.8545,-0.5493
1805930,0.7448,0.0073,0.6412,0.6104,-1.3428,-0.061
1805950,0.7427,0.0067,0.6371,0.6714,-1.2817,0.6714
1805970,0.7394,0.0122,0.6392,0.2441,-0.9766,0.5493
1805991,0.7374,0.0114,0.6431,0.4883,-1.2207,0.5493
1806011,0.7396,0.0077,0.6401,0.6104,-1.2207,0.061
1806031,0.7395,0.0094,0.641,0.7935,-1.2207,-0.1221
1806051,0.7399,0.001,0.6392,0.6104,-0.9766,-0.3052
1806071,0.7463,-0.0017,0.6388,0.8545,-1.2817,0.061
1806091,0.7444,-0.0021,0.6425,0.3052,-1.6479,0.2441
1806111,0.7352,-0.001,0.6473,0.6104,-1.709,0.6104
1806132,0.7368,-0.0006,0.6466,0.4883,-1.3428,0.7935
1806152,0.7328,-0.0001,0.646,0.5493,-1.3428,0.7324
1806172,0.7345,-0.0006,0.6415,0.5493,-1.0376,0.5493
1806192,0.7418,0.0046,0.639,0.4883,0.061,0.4272
1806212,0.7429,0.0065,0.6429,0.5493,-0.8545,0.4883
1806232,0.7351,0.0074,0.6545,0.3052,-0.8545,0.3662
1806252,0.7244,0.0116,0.6443,0.3052,-0.4883,0.2441
1806273,0.7277,0.0131,0.647,0.3662,-0.4272,0.4272
1806293,0.7236,0.0103,0.6552,1.1597,0.0,0.6104
1806313,0.7317,0.0105,0.6567,1.5869,0.1831,0.9155
1806333,0.7383,0.0081,0.6499,1.6479,-0.1831,1.4648
1806353,0.7411,0.0028,0.6411,1.6479,-0.061,1.4038
1806373,0.7397,0.0038,0.6453,1.8311,-0.2441,1.2207
1806397,0.7361,0.007,0.6345,1.4648,-0.3662,1.0986
1806417,0.7343,0.0059,0.644,1.5259,-0.1221,0.7324
1806439,0.7408,0.0031,0.6456,1.2207,-0.6104,0.6104
1806459,0.7417,0.0023,0.642,0.9155,-0.5493,0.4883
1806479,0.7405,0.0021,0.64,0.9155,-0.3662,0.2441
1806499,0.7408,0.0031,0.6394,0.6104,-0.061,0.0
1806519,0.7386,0.0049,0.64,0.5493,-0.1221,-0.2441
1806539,0.7399,0.0024,0.6453,0.4883,0.4883,-0.6714
1806559,0.745,0.0028,0.6412,-0.061,0.061,-0.7935
1806579,0.7418,0.006,0.6433,0.1221,-0.3052,-0.6714
1806601,0.7363,0.0068,0.6431,0.061,-0.3662,-0.4883
1806621,0.7394,0.0059,0.6403,0.3662,-0.4883,-0.2441
1806641,0.7416,0.0032,0.6377,0.4883,-0.3052,-0.4272
1806661,0.7427,0.0107,0.6443,1.2817,-0.7935,0.3662
1806682,0.7354,0.0089,0.6429,1.0986,-0.9766,0.2441
1806702,0.7375,0.0046,0.6465,1.2207,-0.7324,0.2441
1806722,0.7358,0.0048,0.6475,1.1597,-0.9155,0.2441
1806742,0.7335,0.0057,0.6498,1.4648,-0.7324,0.4272
1806762,0.7354,0.0045,0.646,1.5259,-0.6714,0.4272
1806782,0.7382,0.0027,0.6417,1.4648,-0.3052,0.7324
1806802,0.7423,0.002,0.6465,1.4648,-0.5493,1.0376
1806822,0.7349,-0.0009,0.6434,1.5869,-0.9155,1.0986
1806843,0.7329,-0.0021,0.645,1.4648,-0.6714,1.1597
1806863,0.7356,-0.0056,0.6407,1.5869,-0.4883,1.1597
1806883,0.736,-0.0057,0.6418,0.8545,-0.2441,1.2207
1806903,0.7339,0.0001,0.6498,0.9766,-0.6714,1.4038
1806923,0.7327,0.0018,0.6456,1.0986,-0.6104,0.9155
1806943,0.7368,0.0018,0.642,0.7324,-0.4272,0.7935
1806966,0.7391,-0.001,0.6437,0.9155,-0.1221,0.6714
1806986,0.7413,-0.0002,0.6429,0.6714,-0.5493,0.3662
1807006,0.7378,0.0016,0.6443,0.3052,-0.4272,0.0
1807030,0.7335,0.0026,0.6427,0.7324,-0.3662,-0.1831
1807050,0.7319,-0.0009,0.644,0.5493,0.061,-0.1221
1807070,0.7366,0.0039,0.6531,0.1221,0.061,0.1831
1807092,0.7402,0.0038,0.6501,-0.3052,0.7324,0.4883
1807112,0.7429,0.0009,0.6456,0.1221,0.9766,0.6104
1807132,0.7404,0.0011,0.6453,0.3052,0.7324,0.7935
1807156,0.7336,0.0076,0.6407,0.6104,1.8311,0.7324
1807177,0.7362,0.009,0.6321,0.9155,1.8311,0.3662
1807197,0.7457,0.0063,0.6327,0.9155,1.4038,0.3662
1807217,0.7478,0.0048,0.6362,1.0376,0.1221,0.6714
1807239,0.7451,0.0021,0.6345,0.7935,-0.6104,0.7935
1807259,0.7412,0.002,0.6344,0.4883,-0.7324,0.6714
1807279,0.7407,0.0048,0.6382,0.4883,-0.7324,0.4883
1807299,0.7445,0.0085,0.6406,0.6714,-0.7324,0.4272
1807319,0.7483,0.0073,0.635,0.7324,-0.8545,0.1221
1807342,0.7539,0.0164,0.623,0.3052,-1.0376,-0.1831
1807362,0.745,0.0206,0.6289,0.1831,-1.8311,0.1221
1807382,0.7429,0.0122,0.6372,0.9155,-1.2207,1.5259
1807402,0.7396,0.0092,0.6458,1.0986,-1.0376,2.6855
1807422,0.7302,0.0101,0.6592,1.2207,-0.2441,3.418
1807442,0.729,0.0105,0.6615,1.0376,0.6104,3.2349
1807462,0.733,0.0092,0.6545,1.4648,1.8921,3.0518
1807482,0.7339,0.0066,0.6504,1.8311,1.4648,2.1973
1807502,0.7375,0.0042,0.6404,1.8311,0.6714,1.77
1807523,0.7402,0.0026,0.6315,2.1362,0.061,1.5259
1807543,0.74,-0.0005,0.6283,2.3193,-1.0376,1.0376
1807563,0.7382,0.0001,0.6324,1.4038,-1.1597,0.4272
1807583,0.7395,0.0045,0.637,0.9155,-1.6479,0.1221
1807604,0.7415,0.0056,0.6414,1.2817,-2.0142,-0.2441
1807624,0.7429,0.0059,0.6471,1.5259,-2.0142,-0.4272
1807644,0.744,0.0028,0.6498,1.8311,-1.709,-0.6104
1807664,0.7449,0.0045,0.6494,2.0752,-1.4038,-0.6714
1807684,0.7476,0.0079,0.6445,1.709,-1.2817,-0.3052
1807707,0.7499,0.0034,0.6398,1.709,-0.7324,-0.061
1807727,0.7725,0.0096,0.6387,1.8921,-0.2441,-0.061
1807748,0.7456,0.0098,0.6334,2.0752,-0.1831,-0.1831
1807771,0.7455,0.0067,0.6323,2.0752,-0.4272,-0.061
1807791,0.7433,0.0079,0.6338,2.5024,-0.9766,0.1221
1807811,0.7406,0.0107,0.6334,2.4414,-0.4272,0.1831
1807831,0.7395,0.0061,0.6344,3.54,-1.9531,0.3662
1807851,0.7499,0.0056,0.6364,3.9062,-1.3428,0.4272
1807871,0.7465,0.0002,0.6379,4.3335,-2.0142,0.6104
1807891,0.7489,-0.0035,0.6383,4.6387,-3.1128,0.6714
1807912,0.7451,-0.0049,0.6436,4.3335,-3.479,0.3052
1807933,0.7365,-0.0114,0.6486,4.0894,-3.2349,0.1221
1807953,0.7374,-0.0137,0.6528,3.7231,-3.0518,-0.2441
1807973,0.7369,-0.0128,0.6544,3.3569,-3.6011,-0.5493
1807993,0.7251,-0.0111,0.6578,3.1738,-4.0283,-0.8545
1808017,0.7141,-0.0144,0.6627,2.8687,-2.9297,-1.0986
1808038,0.7101,-0.019,0.6626,2.1973,-1.77,-1.1597
1808058,0.7129,-0.0167,0.6636,2.0142,-1.2207,-1.2207
1808078,0.7177,-0.0149,0.6626,1.5259,-0.6104,-1.4038
1808098,0.7218,-0.0133,0.6643,0.8545,-0.4272,-1.5869
1808120,0.7195,-0.0153,0.665,0.6104,-0.3662,-1.709
1808140,0.7173,-0.0178,0.6672,0.1221,-0.4272,-1.5259
1808160,0.7161,-0.0159,0.6655,0.1221,-0.3052,-1.1597
1808180,0.7208,-0.0146,0.6675,0.2441,-0.3052,-0.4272
1808200,0.7227,-0.011,0.6678,-0.1221,-0.1221,-0.3052
1808220,0.7225,-0.0128,0.6661,-0.3052,-0.1221,-0.061
1808240,0.7249,-0.0133,0.6603,-0.3052,0.7324,-0.5493
1808261,0.7302,-0.0135,0.6538,-0.5493,0.3052,-0.7324
1808281,0.7295,-0.0198,0.6488,-0.1831,-0.4883,-0.6714
1808302,0.7235,-0.0242,0.6556,-0.6104,-0.7935,-0.2441
1808322,0.7175,-0.0153,0.6613,0.0,-0.2441,0.061
1808342,0.7283,-0.0054,0.6593,0.3052,0.6714,-0.4883
1808362,0.7308,-0.0065,0.6573,0.9766,1.0986,-0.6714
1808382,0.7363,-0.0111,0.6511,1.0376,1.5869,-0.5493
1808402,0.7395,-0.016,0.6447,1.1597,1.5259,-0.4272
1808422,0.7396,-0.0184,0.6444,0.9766,1.0376,0.1831
1808442,0.7357,-0.0149,0.6475,1.709,0.4883,1.0376
1808462,0.7317,-0.0118,0.6475,2.0752,0.6104,0.8545
1808482,0.7352,-0.0149,0.6451,2.2583,0.6714,0.6714
1808502,0.739,-0.0194,0.6423,2.4414,0.2441,0.6714
1808523,0.7404,-0.0251,0.6415,1.8921,-0.3662,0.7935
1808543,0.7375,-0.0254,0.6425,1.2817,-0.7324,0.9766
1808563,0.734,-0.0228,0.6458,1.0376,-0.6104,1.0986
1808583,0.731,-0.0194,0.6492,0.4272,-0.7324,0.9766
1808603,0.7301,-0.0157,0.6542,0.5493,-0.6104,0.9155
1808623,0.7323,-0.016,0.6528,0.7324,-0.4272,0.9766
1808643,0.7396,-0.0125,0.6493,0.6714,-0.4272,0.6714
1808663,0.7401,-0.0161,0.6467,0.7324,-0.6714,0.9155
1808684,0.7396,-0.0146,0.6459,0.6714,-0.7324,0.9766
1808704,0.7362,-0.0164,0.6455,0.4883,-0.6714,0.9155
1808728,0.7307,-0.0198,0.6447,0.9155,-1.2207,1.3428
1808749,0.7343,-0.0179,0.6461,0.6104,-1.2207,1.5869
1808769,0.7371,-0.0155,0.6475,0.6104,-1.4038,1.5869
1808789,0.7338,-0.0153,0.6506,0.3662,-1.4648,1.5259
1808809,0.7351,-0.0127,0.6509,0.061,-0.8545,1.0986
1808830,0.7352,-0.0115,0.6526,0.1831,-0.9155,0.9155
1808852,0.7365,-0.0139,0.6534,0.1221,-0.8545,0.6104
1808872,0.7285,-0.0105,0.6553,0.3052,-0.7935,0.5493
1808892,0.724,-0.0067,0.6541,0.7324,-0.7935,0.6714
1808912,0.7251,-0.0083,0.6526,1.0986,-0.1831,0.6714
1808932,0.7272,-0.0094,0.6516,1.0376,-0.4272,0.8545
1808952,0.7289,-0.0126,0.6527,1.3428,-0.1831,1.2207
1808975,0.7301,-0.0112,0.6521,1.5259,-0.5493,1.4648
1808995,0.7303,-0.0083,0.6533,1.4648,-0.7324,1.709
1809015,0.7286,-0.0129,0.6516,1.6479,-0.7324,1.8311
1809035,0.7327,-0.0138,0.6547,0.9155,-0.4272,1.6479
1809055,0.7323,-0.0146,0.6532,0.7324,-0.1221,1.5259
1809075,0.7289,-0.0101,0.6605,0.6104,-0.3052,1.3428
1809097,0.7322,-0.0087,0.6603,0.2441,-0.3052,1.2207
1809117,0.7354,-0.0133,0.6526,0.6104,-0.6104,1.2817
1809140,0.7386,-0.0178,0.6519,0.9766,0.0,0.9155
1809160,0.7318,-0.0126,0.6489,1.0986,0.061,1.5869
1809180,0.7235,-0.0101,0.6465,1.3428,-0.061,1.8921
1809203,0.7252,-0.0111,0.6473,1.0986,-0.1221,1.6479
1809223,0.7321,-0.0116,0.6396,0.061,-0.4272,1.4038
1809243,0.7386,-0.0114,0.645,-0.1831,-0.6104,0.9766
1809263,0.7362,-0.0114,0.6488,-0.6714,-0.4883,-0.061
1809285,0.7366,-0.0072,0.6458,-0.9155,0.0,-0.4883
1809305,0.7352,-0.0044,0.6504,-1.1597,-0.5493,-0.9155
1809328,0.7351,0.0001,0.6531,-0.9766,-0.4883,-1.0986
1809348,0.7355,0.0002,0.6517,-0.061,-0.5493,-0.5493
1809368,0.7335,-0.004,0.6461,0.7324,-0.7324,0.1831
1809388,0.7357,-0.005,0.6543,0.5493,-0.4272,0.7935
1809408,0.7345,-0.0029,0.651,1.0376,-0.4883,1.2207
1809428,0.7273,-0.0006,0.6533,1.2817,-0.4883,1.5869
1809448,0.7338,-0.0006,0.6415,0.7324,-0.4272,1.2207
1809468,0.7393,-0.0074,0.646,0.7935,-0.061,0.9766
1809490,0.7366,-0.0127,0.6436,0.7324,-0.1831,0.7324
1809510,0.7393,-0.0111,0.6462,0.4272,-0.6714,0.4272
1809531,0.7327,-0.0059,0.6555,0.5493,-1.1597,0.3662
1809551,0.7317,-0.0059,0.6521,0.4883,-1.3428,0.3662
1809571,0.7269,-0.0092,0.6492,0.6714,-0.8545,0.2441
1809592,0.7288,-0.0103,0.6469,0.7935,-0.4883,0.4883
1809612,0.7322,-0.0107,0.6528,0.5493,-0.4883,0.4272
1809632,0.7313,-0.0073,0.6558,0.7935,-0.7935,0.7935
1809652,0.731,-0.0056,0.6533,0.7324,-0.7935,0.7324
1809672,0.7295,-0.0057,0.6528,0.7935,-0.5493,0.4883
1809692,0.7313,-0.0081,0.6461,0.8545,-0.2441,0.4883
1809712,0.7352,-0.0083,0.65,0.3662,-0.3662,0.4883
1809734,0.7363,-0.0099,0.6488,0.3662,-0.5493,0.1221
1809754,0.7311,-0.0094,0.6501,0.2441,-0.5493,0.061
1809774,0.7312,-0.0096,0.6462,-0.1221,0.0,-0.2441
1809794,0.7339,-0.0101,0.6526,0.1831,0.061,-0.1831
1809814,0.7349,-0.0077,0.6493,-0.061,-0.1221,0.061
1809834,0.7338,-0.0042,0.6514,0.6104,-0.3052,0.1221
1809854,0.7323,-0.0059,0.6533,0.6104,-0.2441,0.4272
1809874,0.7328,-0.0061,0.651,0.3662,-0.1221,0.5493
1809894,0.7328,-0.0079,0.6493,0.4883,-0.4883,0.5493
1809914,0.7338,-0.0071,0.6475,0.0,-0.6104,0.1221
1809934,0.7357,-0.0078,0.6461,0.0,-0.4883,0.0
1809954,0.7338,-0.0077,0.6481,-0.061,-0.9155,-0.3052
1809974,0.7358,-0.0045,0.6448,0.4272,-1.2817,-0.4272
1809998,0.7368,-0.0013,0.6471,1.0986,-1.6479,-0.3662
1810018,0.7307,-0.0046,0.6505,1.709,-1.6479,-0.1831
1810039,0.7324,-0.0011,0.6543,1.6479,-1.2817,0.0
1810059,0.7303,0.0028,0.6527,1.1597,-1.4038,0.1221
1810079,0.7262,0.004,0.6544,1.2817,-1.2207,0.061
1810099,0.7263,0.001,0.6527,1.5259,-1.0986,0.061
1810119,0.7284,-0.0012,0.6537,1.709,-0.4883,0.0
1810140,0.7325,-0.0074,0.657,1.6479,-0.6104,-0.1221
1810161,0.7349,-0.0117,0.6565,1.1597,-0.6714,-0.061
1810181,0.7351,-0.014,0.6537,1.0376,-0.8545,-0.3662
1810201,0.7314,-0.0139,0.6532,1.0376,-0.9155,-0.4272
1810221,0.7264,-0.0106,0.6537,0.7935,-1.0986,0.061
1810241,0.7208,-0.0084,0.6538,0.9766,-1.2817,0.1831
1810261,0.7228,-0.0131,0.658,0.9766,-1.2817,0.1831
1810281,0.7258,-0.0117,0.6553,1.0376,-1.2207,0.1831
1810301,0.7235,-0.0135,0.6567,0.8545,-1.0986,0.1831
1810324,0.7261,-0.0151,0.6575,0.7935,-1.1597,0.061
1810344,0.7279,-0.0148,0.6589,0.4883,-1.0376,0.1221
1810367,0.7308,-0.0127,0.6573,0.0,-1.2207,0.0
1810387,0.7273,-0.0138,0.6599,-0.2441,-1.5259,0.2441
1810407,0.7292,-0.0134,0.657,-0.3052,-1.5259,0.3662
1810427,0.7269,-0.006,0.6575,-0.1221,-1.5259,0.6104
1810447,0.7238,0.001,0.6609,0.6104,-1.0986,0.9766
1810467,0.724,-0.0048,0.6523,1.8921,-0.8545,1.4648
1810487,0.7207,-0.0112,0.6604,2.3193,-1.1597,2.3193
1810507,0.7159,-0.0127,0.6669,2.2583,-0.1831,2.8076
1810527,0.7206,-0.0153,0.6644,2.1973,0.7324,2.5635
1810548,0.725,-0.0187,0.6649,1.2817,1.2817,2.2583
1810568,0.7294,-0.0186,0.6609,0.6714,1.2207,1.5259
1810588,0.7307,-0.0101,0.656,0.5493,0.7935,1.0986
1810608,0.7261,-0.0063,0.6547,1.0986,0.1831,0.4883
1810628,0.7249,-0.005,0.6547,1.5259,-0.4272,0.3662
1810648,0.7264,-0.0089,0.6495,1.2817,0.1221,0.3052
1810669,0.731,-0.0109,0.6453,0.3052,-0.1221,0.0
1810689,0.7324,-0.0078,0.6503,0.1221,-0.4272,0.0
1810709,0.7343,-0.0074,0.6522,-0.1221,-0.4883,-0.061
1810729,0.7363,-0.0073,0.6473,-0.3052,-0.4883,-0.3052
1810749,0.7407,-0.0048,0.649,-0.3662,-0.9766,-0.4272
1810769,0.7356,-0.0059,0.6509,0.061,-0.9766,-0.3662
1810792,0.733,-0.0065,0.6495,0.9155,-0.7324,-0.1221
1810812,0.7349,-0.0068,0.6499,0.6104,-0.8545,0.0
1810832,0.724,-0.0112,0.6573,0.0,-1.0986,-0.1221
1810852,0.7214,-0.0087,0.6616,-0.5493,-0.1221,0.1221
1810872,0.7258,-0.0078,0.6566,-0.7324,0.1831,-0.1221
1810892,0.7305,-0.0078,0.6552,-0.6714,0.2441,-0.061
1810912,0.7323,-0.0032,0.6533,-0.2441,-0.3052,0.2441
1810932,0.7334,0.0024,0.6528,0.1831,-0.4272,0.3052
1810953,0.7323,0.0016,0.6509,0.9155,-0.7324,0.4883
1810973,0.7321,0.0002,0.6545,1.5259,-1.0376,0.7324
1810993,0.7355,-0.0013,0.6544,1.9531,-1.5869,1.2817
1811013,0.7321,-0.0087,0.6537,2.5635,-1.709,1.709
1811033,0.7244,-0.0115,0.6541,2.8076,-0.9155,1.8311
1811053,0.725,-0.0083,0.6653,2.5024,-0.061,1.4038
1811073,0.7275,-0.0135,0.6741,2.5635,-0.061,0.7935
1811093,0.7268,-0.0155,0.6774,2.6245,-0.4883,0.3052
1811113,0.7233,-0.015,0.6658,2.5024,-1.2207,-0.1221
1811133,0.7129,-0.0172,0.662,1.9531,-1.0376,-0.3052
1811153,0.7052,-0.0193,0.6595,1.5869,-0.9766,-0.3662
1811173,0.7068,-0.0179,0.6606,1.1597,0.1831,-0.4272
1811193,0.7186,-0.0139,0.6552,0.2441,1.2817,-0.6104
1811213,0.7325,-0.0122,0.6472,0.1831,1.1597,-0.6714
1811233,0.7278,-0.0143,0.6461,0.1221,0.9155,-0.6104
1811253,0.7338,-0.0038,0.6637,0.1221,0.6104,-0.4883
1811273,0.7385,-0.0048,0.6698,0.4883,-0.2441,-0.061
1811293,0.7341,-0.0109,0.6649,0.8545,-1.0986,0.3052
1811313,0.733,-0.0131,0.6615,0.7935,-1.2207,0.5493
1811333,0.7274,-0.0135,0.6541,0.9155,-0.5493,1.1597
1811353,0.7192,-0.0144,0.6562,0.7935,-0.4272,1.0986
1811373,0.7133,-0.0137,0.6547,0.4883,0.7324,1.3428
1811393,0.7201,-0.0148,0.6531,0.3662,0.9766,1.2207
1811413,0.7305,-0.0149,0.6476,0.3052,0.3662,0.6104
1811453,0.7377,-0.0071,0.6497,0.7935,-0.7324,0.3052
1811473,0.7411,-0.0063,0.6465,0.3662,-0.6714,-0.2441
1811493,0.739,-0.006,0.6492,0.1221,-0.6104,-0.4272
1811513,0.7407,-0.0046,0.6504,0.0,-0.6714,-0.6714
1811533,0.7389,-0.0117,0.6499,0.3052,-0.9766,-0.3662
1811556,0.7371,-0.0117,0.6552,0.6714,-1.1597,0.061
1811576,0.7332,-0.0081,0.6562,0.8545,-0.9766,0.1221
1811596,0.7311,-0.0065,0.6545,0.7935,-0.9766,0.1221
1811616,0.7267,-0.0116,0.6558,1.0376,-0.9155,-0.1221
1811636,0.7238,-0.0148,0.6577,1.1597,-1.0986,0.1831
1811656,0.724,-0.0165,0.6556,1.0986,-0.9155,0.3662
1811676,0.7242,-0.0142,0.6534,1.2817,-0.7935,0.5493
1811696,0.7235,-0.0115,0.653,1.1597,-0.7935,0.8545
1811716,0.7242,-0.0122,0.6559,1.2817,-0.7324,0.8545
1811736,0.7235,-0.0122,0.6571,1.3428,-0.6714,0.8545
1811756,0.7253,-0.0116,0.6576,1.4648,-0.4883,0.9766
1811776,0.7289,-0.0154,0.6589,1.2817,-0.7935,0.9155
1811796,0.7318,-0.0159,0.6598,0.6714,-0.7935,0.7324
1811816,0.7288,-0.0122,0.6637,0.6714,-0.6714,0.6104
1811836,0.7289,-0.0139,0.6598,0.7935,-0.4272,0.5493
1811856,0.7277,-0.0129,0.6571,0.7935,-0.1831,0.3052
1811876,0.726,-0.0117,0.6552,0.9766,-0.1221,0.3662
1811898,0.7303,-0.0182,0.6505,0.6714,-0.1831,0.4883
1811919,0.7269,-0.0128,0.6515,0.6714,-0.7935,0.4883
1811939,0.7216,-0.0132,0.6534,0.6714,-1.0376,0.8545
1811959,0.7267,-0.0171,0.6547,0.7935,-0.6714,0.9155
1811979,0.7275,-0.0118,0.6561,0.3052,-0.6104,0.8545
1811999,0.7227,-0.0043,0.6575,-0.3662,-0.7935,0.5493
1812019,0.7198,-0.0032,0.6714,-0.8545,-0.1831,0.3052
1812039,0.7192,-0.0065,0.6677,-0.3052,0.1831,0.4883
1812059,0.72,-0.0065,0.6591,-0.3052,0.7324,1.0986
1812080,0.7363,-0.0082,0.6493,0.061,0.9155,0.9766
1812100,0.7428,-0.0126,0.6455,0.9155,0.3662,1.4648
1812120,0.7385,-0.0198,0.647,1.1597,-0.5493,1.8921
1812140,0.7332,-0.0238,0.6484,0.9155,-0.6104,2.3193
1812160,0.7318,-0.0197,0.6471,0.7935,-0.7935,2.6855
1812180,0.7261,-0.0161,0.6512,0.5493,-0.9155,2.6245
1812203,0.7202,-0.0087,0.6581,0.1831,-0.7935,2.2583
1812223,0.723,-0.0073,0.6576,0.3052,-0.4272,1.9531
1812243,0.7324,-0.0073,0.6605,0.2441,-0.1221,1.1597
1812263,0.736,-0.0088,0.6571,0.1221,-0.6714,0.7935
1812284,0.7356,-0.0034,0.6552,-0.061,-1.1597,0.4272
1812304,0.7288,-0.0037,0.653,-0.1221,-1.3428,0.3052
1812324,0.7267,-0.0037,0.6549,0.1831,-1.0376,0.2441
1812344,0.7278,-0.0011,0.651,0.1831,-0.9766,0.1831
1812364,0.7283,-0.0007,0.6503,0.1221,-1.3428,0.1221
1812384,0.7295,0.0015,0.6554,0.0,-1.4648,0.0
1812404,0.7236,0.0046,0.6577,0.9766,-1.2207,0.2441
1812424,0.7245,0.0015,0.6566,0.7324,-0.9155,0.2441
1812444,0.7308,-0.0068,0.6531,0.4272,-0.9155,0.4883
1812464,0.7334,-0.0022,0.6544,0.061,-0.8545,0.3052
1812486,0.7305,0.0024,0.6555,0.2441,-1.0986,0.1831
1812506,0.7258,0.0033,0.6592,0.6714,-1.4038,0.0
1812526,0.7246,-0.0021,0.6617,0.8545,-1.2817,0.1831
1812546,0.7242,-0.0063,0.6605,0.9766,-1.2817,0.3662
1812566,0.7224,-0.0052,0.6608,0.7324,-1.2207,0.8545
1812587,0.724,-0.0045,0.6614,0.4883,-1.0986,0.6714
1812607,0.723,-0.002,0.6606,0.5493,-0.9766,0.4883
1812627,0.7189,-0.0024,0.6614,0.9155,-1.0376,0.3052
1812647,0.7181,-0.0012,0.661,0.9155,-0.7935,0.0
1812667,0.7229,-0.0059,0.6609,0.7935,-0.7324,-0.1831
1812687,0.7238,-0.0073,0.6584,0.6104,-0.7935,-0.1831
1812707,0.7249,-0.01,0.6604,0.7935,-0.9766,-0.1221
1812727,0.729,-0.01,0.6628,0.3662,-0.9766,-0.3662
1812747,0.7281,-0.0066,0.6628,0.1831,-0.9766,-0.4883
1812767,0.7209,-0.0051,0.6638,0.061,-0.8545,-0.3662
1812787,0.7218,-0.0024,0.661,0.4272,-0.7935,-0.3052
1812811,0.723,-0.0052,0.6592,0.7935,-0.6104,-0.3052
1812832,0.7228,-0.0043,0.6603,0.6714,-0.7324,-0.1831
1812852,0.7183,-0.0046,0.6606,1.0376,-0.8545,-0.061
1812872,0.7158,-0.0063,0.6625,0.8545,-0.4272,-0.1221
1812892,0.7147,-0.0084,0.6628,1.0376,-0.4883,0.2441
1812912,0.7196,-0.0093,0.6633,1.0376,-0.3662,0.5493
1812932,0.7239,-0.0087,0.6625,1.0376,-0.4883,0.7324
1812953,0.7266,-0.0104,0.662,1.0376,-0.6714,0.8545
1812973,0.7269,-0.0101,0.6602,0.7324,-0.8545,0.7324
1812993,0.7258,-0.0121,0.6599,0.9766,-0.5493,0.7324
1813013,0.7267,-0.0126,0.6576,0.6104,-0.6104,0.5493
1813033,0.7261,-0.011,0.6592,0.061,-0.7324,0.5493
1813053,0.7202,-0.0093,0.6617,0.3662,-0.8545,0.4883
1813073,0.7205,-0.0084,0.663,0.3662,-0.3662,0.4883
1813093,0.7229,-0.0055,0.6628,0.2441,-0.3052,0.2441
1813113,0.7236,0.0002,0.6614,0.4272,-0.1831,-0.3662
1813133,0.7251,0.0015,0.6608,0.3052,-0.2441,-0.8545
1813156,0.724,-0.0007,0.6597,0.1831,-0.2441,-1.2817
1813176,0.7238,-0.0022,0.6576,0.2441,-0.3662,-1.4038
1813196,0.7245,-0.0076,0.6594,0.061,-0.4883,-1.4038
1813216,0.7244,-0.006,0.6605,0.0,-0.7324,-0.9155
1813236,0.7235,-0.0051,0.6609,0.1221,-0.7324,-0.5493
1813257,0.7228,-0.0057,0.6622,0.2441,-0.9155,-0.061
1813277,0.7207,-0.0066,0.665,1.0986,-1.0376,0.3662
1813300,0.7234,-0.0061,0.6633,0.7324,-1.1597,0.5493
1813320,0.7229,-0.0065,0.6616,1.0376,-0.9155,0.9766
1813341,0.7228,-0.0106,0.6608,1.0376,-0.9155,0.8545
1813361,0.7214,-0.0111,0.6615,1.2207,-0.6714,0.2441
1813384,0.7234,-0.0109,0.6615,1.1597,-0.5493,0.1831
1813404,0.7231,-0.0077,0.6626,1.1597,-0.4883,0.1221
1813424,0.723,-0.0093,0.6622,1.0376,-0.4883,0.2441
1813444,0.7195,-0.0132,0.6602,0.7324,-0.8545,0.061
1813464,0.7223,-0.0154,0.662,0.8545,-0.6104,-0.1221
1813484,0.7225,-0.0148,0.6653,0.6714,-0.7935,-0.2441
1813505,0.7207,-0.0084,0.6663,0.7935,-0.7324,-0.1221
1813525,0.7185,-0.0101,0.6685,0.9766,-0.8545,0.2441
1813545,0.7178,-0.0105,0.6674,0.9766,-0.6714,0.5493
1813565,0.7205,-0.0143,0.6649,0.7935,-0.6104,0.4883
1813588,0.718,-0.0093,0.6648,0.4883,-0.2441,0.1831
1813609,0.7162,-0.007,0.6632,0.6104,-0.3052,0.1831
1813629,0.7155,-0.0084,0.6614,0.5493,-0.1831,0.1221
1813650,0.7185,-0.0103,0.6615,0.5493,-0.1831,0.3662
1813670,0.7217,-0.0104,0.6621,0.3662,-0.1221,0.5493
1813691,0.7236,-0.0077,0.6632,0.4272,-0.1831,0.4883
1813711,0.7225,-0.0055,0.665,0.5493,-0.3052,0.4883
1813732,0.7216,-0.007,0.6643,0.7324,-0.1831,0.2441
1813752,0.7245,-0.0117,0.6621,0.7324,0.0,0.5493
1813772,0.7269,-0.0121,0.661,0.5493,0.1221,0.6104
1813792,0.7268,-0.009,0.6583,0.1831,-0.1221,0.1831
1813812,0.7247,-0.0059,0.6594,0.3662,-0.1221,0.2441
1813832,0.7239,-0.0067,0.6586,0.3052,-0.3052,0.1831
1813852,0.723,-0.0085,0.6567,0.061,-0.2441,0.0
1813873,0.723,-0.0085,0.6578,0.4272,-0.4883,0.061
1813893,0.724,-0.0087,0.6597,0.3662,-0.5493,0.061
1813913,0.7244,-0.01,0.6611,0.4883,-0.3662,0.1221
1813933,0.726,-0.0098,0.6614,0.6104,-0.4883,0.061
1813953,0.7267,-0.0103,0.6593,0.7935,-0.5493,0.2441
1813973,0.7247,-0.0114,0.6615,0.4272,-0.7324,0.3052
1813993,0.7257,-0.0137,0.6602,0.4883,-0.6104,0.4272
1814013,0.7239,-0.0129,0.6617,0.5493,-0.5493,0.4883
1814033,0.7236,-0.0111,0.6614,0.6714,-0.6104,0.3662
1814053,0.7231,-0.0092,0.6599,0.3662,-0.6104,0.5493
1814073,0.7239,-0.0085,0.6614,0.061,-0.7935,0.4272
1814093,0.7209,-0.0067,0.6608,0.3052,-1.0376,0.4883
1814113,0.7179,-0.0081,0.6613,0.6104,-0.9766,0.5493
1814133,0.7196,-0.0079,0.6624,0.8545,-0.8545,0.6104
1814153,0.7239,-0.0066,0.6604,0.8545,-0.6714,0.8545
1814173,0.7241,-0.01,0.6624,0.7935,-0.8545,0.6714
1814193,0.7218,-0.0094,0.6631,0.6714,-0.7324,0.6104
1814213,0.7219,-0.0078,0.662,0.6104,-0.4272,0.6714
1814233,0.7228,-0.0088,0.6621,0.7324,-0.6714,0.7324
1814253,0.7236,-0.0088,0.6636,0.4272,-0.4883,0.4883
1814273,0.7274,-0.0073,0.6622,0.2441,-0.4883,0.3052
1814293,0.7258,-0.0051,0.662,0.1221,-0.8545,0.061
1814313,0.7224,-0.0076,0.6631,0.5493,-0.7935,0.1831
1814333,0.7198,-0.0071,0.6625,0.061,-0.7935,0.3662
1814353,0.718,-0.0074,0.6631,0.1831,-0.8545,0.4272
1814373,0.7158,-0.0033,0.6647,0.4272,-0.3662,0.3052
1814394,0.715,-0.0016,0.6638,0.3662,-0.1831,0.1831
1814415,0.7164,-0.0033,0.6666,0.7935,-0.2441,0.3662
1814435,0.7202,-0.0076,0.6642,0.9766,-0.1221,0.1221
1814455,0.7212,-0.0082,0.6635,0.9766,-0.061,0.3662
1814475,0.7239,-0.0046,0.6621,0.7324,-0.4883,0.3662
1814498,0.7224,-0.0045,0.6638,0.8545,-0.6104,0.3662
1814518,0.7233,-0.0077,0.6606,0.7324,-0.5493,0.4883
1814538,0.723,-0.0105,0.6593,0.7324,-0.4272,0.3052
1814558,0.7261,-0.0107,0.661,0.6714,-0.1831,0.1221
1814578,0.7255,-0.0092,0.6608,0.4883,-0.4883,-0.061
1814598,0.7242,-0.0077,0.6594,0.4883,-0.4272,0.2441
1814618,0.7251,-0.007,0.6586,0.4883,-0.4883,0.1831
1814641,0.7227,-0.0083,0.6602,0.4272,-0.5493,0.2441
1814661,0.7225,-0.0084,0.6614,0.3662,-0.4272,0.061
1814681,0.7209,-0.0078,0.6599,0.3662,-0.1221,0.061
1814701,0.7236,-0.0089,0.6609,0.4883,0.1221,0.0
1814721,0.7256,-0.0107,0.6609,0.4272,-0.4272,-0.061
1814741,0.7253,-0.0089,0.661,0.2441,-0.5493,-0.1221
1814761,0.723,-0.0092,0.6609,0.6104,-0.6714,0.2441
1814781,0.7245,-0.007,0.6611,0.5493,-0.5493,0.2441
1814801,0.7238,-0.0037,0.6619,0.2441,-0.6714,0.1831
1814821,0.7238,-0.0062,0.662,0.6714,-0.7935,0.1831
1814842,0.7196,-0.0083,0.6646,0.6104,-0.7935,0.1221
1814862,0.7217,-0.0107,0.6622,0.7935,-0.7935,0.2441
1814882,0.7229,-0.0129,0.6606,0.4883,-0.6714,0.2441
1814902,0.7245,-0.0089,0.6604,0.3052,-0.6714,0.2441
1814923,0.7223,-0.0061,0.6606,0.4883,-0.6104,0.2441
1814947,0.722,-0.007,0.6613,0.5493,-0.6714,0.1221
1814967,0.7231,-0.011,0.6609,0.3662,-0.5493,0.1221
1814987,0.7234,-0.0077,0.6627,0.1221,-0.4272,0.0
1815007,0.7216,-0.0092,0.6633,0.3662,-0.4883,0.061
1815027,0.7225,-0.0101,0.6624,0.3662,-0.4883,0.1831
1815047,0.7206,-0.0067,0.6617,0.4272,-0.3662,0.2441
1815068,0.7207,-0.0039,0.6632,0.6714,-0.4272,0.4272
1815088,0.7227,-0.0072,0.6616,0.7324,-0.3052,0.2441
1815108,0.724,-0.0072,0.6619,0.5493,-0.3662,0.3052
1815128,0.723,-0.0081,0.6625,0.3052,-0.3662,0.1831
1815148,0.7229,-0.0076,0.6614,0.6714,-0.4883,0.3662
1815168,0.7235,-0.0059,0.6602,0.6104,-0.4272,0.3052
1815188,0.723,-0.0088,0.6594,0.7324,-0.5493,0.1831
1815208,0.7228,-0.0114,0.6615,0.4272,-0.2441,0.1831
1815228,0.7271,-0.0083,0.6616,0.7324,-0.3662,0.2441
1815252,0.7263,-0.0073,0.6626,0.7324,-0.8545,0.3662
1815272,0.7246,-0.0076,0.6624,1.0376,-0.6714,0.4883
1815292,0.7222,-0.0084,0.6616,1.0376,-0.7935,0.7935
1815312,0.7186,-0.0104,0.6621,0.7935,-0.6104,0.5493
1815332,0.7177,-0.0078,0.6616,0.9766,-0.2441,0.5493
1815352,0.7184,-0.0074,0.6609,0.9155,-0.3052,0.4272
1815372,0.7198,-0.0084,0.6605,0.8545,-0.4883,0.5493
1815392,0.7196,-0.0088,0.6609,0.9766,-0.3052,0.7935
1815412,0.7225,-0.0112,0.6608,0.8545,-0.2441,0.7324
1815432,0.7249,-0.0085,0.6627,0.4883,-0.2441,0.4883
1815452,0.7271,-0.0076,0.6633,0.4883,-0.3662,0.4272
1815472,0.7256,-0.0065,0.6616,0.6104,-0.3662,0.5493
1815492,0.7257,-0.0093,0.6586,0.6104,-0.7324,0.4883
1815512,0.7266,-0.01,0.6593,0.5493,-0.6104,0.3662
1815533,0.7245,-0.0065,0.6606,0.6714,-0.6714,0.3052
1815554,0.7229,-0.0043,0.6616,0.7324,-0.4272,0.3662
1815574,0.7235,-0.0061,0.6609,0.7324,-0.7935,0.4272
1815594,0.7212,-0.0084,0.6624,0.7324,-0.7324,0.3052
1815617,0.7239,-0.009,0.6593,0.5493,-0.3662,0.2441
1815637,0.7236,-0.0078,0.6608,0.4272,-0.4272,0.3052
1815657,0.7255,-0.0071,0.6606,0.4272,-0.4272,0.4272
1815677,0.7236,-0.0094,0.6615,0.4272,-0.5493,0.4272
1815697,0.7227,-0.0074,0.6615,0.6104,-0.6104,0.061
1815717,0.7222,-0.007,0.6614,0.5493,-0.7935,0.2441
1815737,0.7222,-0.0067,0.6633,0.7324,-0.8545,0.5493
1815757,0.7249,-0.0046,0.6621,0.9766,-0.7935,0.5493
1815777,0.7245,-0.0084,0.6609,0.6714,-0.9766,0.5493
1815797,0.7211,-0.0063,0.6637,0.6714,-0.8545,0.4883
1815817,0.7173,-0.0062,0.6636,0.7324,-0.8545,0.3052
1815837,0.7196,-0.0094,0.6639,0.5493,-0.7935,0.4883
1815857,0.7223,-0.0095,0.6631,0.6714,-0.6104,0.3662
1815877,0.7235,-0.0077,0.6611,0.9155,-0.6104,0.4883
1815897,0.7228,-0.0078,0.6609,0.7324,-0.6714,0.4272
1815917,0.7231,-0.0073,0.661,0.4883,-0.6104,0.1221
1815938,0.72,-0.0083,0.6624,0.2441,-0.5493,0.061
1815958,0.7203,-0.0077,0.6621,0.3052,-0.4883,0.1221
1815978,0.7188,-0.0089,0.6653,0.3052,-0.6104,0.1221
1815998,0.7202,-0.0082,0.6659,0.3052,-0.6714,0.3052
1816019,0.7198,-0.0074,0.665,0.1831,-0.5493,0.3662
1816039,0.7216,-0.0056,0.6642,0.3662,-0.7324,0.4272
1816059,0.7208,-0.0054,0.6632,0.3662,-0.6714,0.5493
1816081,0.7236,-0.0056,0.6631,0.5493,-0.4883,0.3052
1816102,0.7247,-0.0046,0.6619,0.4883,-0.1831,0.2441
1816122,0.7235,-0.0076,0.6616,0.7324,-0.7935,0.3662
1816143,0.7214,-0.0081,0.6608,0.8545,-1.0986,0.4883
1816163,0.7245,-0.005,0.6591,0.7935,-0.9766,0.4272
1816183,0.7189,-0.0101,0.661,1.4038,-0.8545,0.3662
1816203,0.7317,0.0078,0.6553,1.1597,-0.5493,0.0
1816223,0.7202,0.0055,0.6661,2.9907,-1.6479,0.4272
1816243,0.7229,-0.0161,0.6604,2.6245,-1.3428,0.5493
1816265,0.7281,-0.0265,0.6605,2.0752,-1.1597,0.7324
1816285,0.7273,-0.009,0.6656,1.77,-0.7324,0.9766
1816305,0.7245,0.0018,0.6646,1.8311,-1.1597,1.1597
1816325,0.7203,0.0029,0.6654,2.3193,-1.3428,0.8545
1816345,0.7158,-0.0049,0.6627,2.1362,-1.4038,0.4883
1816365,0.7159,-0.011,0.6617,2.2583,-1.3428,0.4883
1816385,0.7162,-0.0145,0.6615,1.6479,-1.2817,0.7324
1816405,0.7198,-0.0171,0.6628,1.5259,-1.4648,0.9155
1816425,0.72,-0.0161,0.6641,1.2207,-1.4648,0.7324
1816445,0.7195,-0.0121,0.6655,0.6714,-1.3428,0.4883
1816468,0.7173,-0.0081,0.6676,0.7324,-1.5259,0.0
1816488,0.7191,-0.0076,0.671,0.9766,-1.3428,0.061
1816511,0.7191,-0.0103,0.6711,0.9766,-1.3428,0.0
1816531,0.717,-0.0096,0.6741,1.1597,-1.5869,0.3052
1816551,0.7139,-0.0081,0.6748,1.2817,-1.5869,0.3052
1816571,0.7125,-0.0135,0.6729,1.0376,-1.5259,0.3662
1816591,0.7104,-0.0125,0.6733,0.7324,-1.3428,0.3052
1816612,0.7078,-0.0139,0.6727,0.7935,-1.4038,0.4272
1816632,0.7081,-0.0126,0.6726,1.1597,-1.1597,0.4883
1816652,0.7075,-0.0083,0.6758,1.1597,-1.2817,0.4883
1816672,0.7087,-0.0094,0.6769,1.3428,-1.0376,0.3052
1816692,0.709,-0.0142,0.6758,1.5869,-1.1597,0.3662
1816712,0.7107,-0.0198,0.676,1.4648,-1.0986,0.3662
1816733,0.7098,-0.0184,0.6772,1.4038,-1.0376,0.7324
1816753,0.7106,-0.0145,0.6771,1.4038,-1.0376,0.7324
1816773,0.7083,-0.0139,0.677,1.2817,-0.9155,0.9155
1816793,0.7087,-0.0154,0.6776,1.4038,-0.8545,0.9766
1816813,0.7135,-0.0175,0.6733,1.3428,-0.6714,0.8545
1816833,0.7114,-0.0182,0.6736,0.9766,-0.6714,0.6104
1816853,0.7108,-0.0154,0.6757,0.6104,-0.4883,0.5493
1816873,0.7117,-0.0146,0.6726,0.6104,-0.061,0.3662
1816893,0.7126,-0.0131,0.6727,0.4272,-0.3052,0.1831
1816913,0.7113,-0.0109,0.6738,0.6714,-0.4272,0.3052
1816933,0.7119,-0.0104,0.6743,0.6104,-0.1831,0.2441
1816953,0.7147,-0.0106,0.6732,0.6714,-0.1221,0.1831
1816973,0.7134,-0.0117,0.6725,0.7935,-0.5493,0.061
1816994,0.7146,-0.0127,0.6725,0.4272,-0.1831,0.2441
1817014,0.7163,-0.0118,0.6715,0.6104,-0.5493,0.5493
1817034,0.7148,-0.0103,0.6696,0.7324,-0.5493,0.3662
1817054,0.7129,-0.0127,0.6711,0.9766,-0.3052,0.4272
1817075,0.7153,-0.0106,0.6693,0.6104,-0.5493,0.2441
1817095,0.7144,-0.0109,0.672,0.7324,-0.5493,0.3052
1817116,0.7161,-0.0154,0.6686,0.9155,-0.5493,0.3662
1817136,0.7159,-0.0177,0.6726,0.9155,-0.7324,0.1221
1817158,0.7169,-0.0143,0.6727,0.7324,-0.6714,0.1221
1817178,0.7151,-0.0129,0.6738,0.7935,-0.7935,0.0
1817198,0.7142,-0.0129,0.6742,0.9155,-0.5493,0.2441
1817218,0.7126,-0.0159,0.6729,0.7935,-0.7324,0.1221
1817239,0.7083,-0.0167,0.6732,0.5493,-0.7935,-0.061
1817259,0.7069,-0.0171,0.6733,0.4883,-0.5493,0.061
1817279,0.7089,-0.0172,0.6747,0.2441,-0.2441,-0.1221
1817299,0.7091,-0.0175,0.6754,0.061,-0.3662,-0.3052
1817319,0.7096,-0.0164,0.6769,-0.1221,-0.2441,-0.3052
1817339,0.7087,-0.0167,0.6764,-0.1221,0.061,-0.5493
1817359,0.7118,-0.0148,0.6763,-0.3052,0.061,-0.3662
1817379,0.7112,-0.0139,0.675,-0.061,-0.4883,-0.3052
1817399,0.7095,-0.0155,0.674,0.2441,-0.3052,-0.1831
1817421,0.7114,-0.0204,0.6754,0.4272,0.1831,-0.3662
1817441,0.7141,-0.0225,0.6737,-0.1831,0.4883,-0.5493
1817461,0.7133,-0.0156,0.6761,-0.1221,0.6104,-0.5493
1817481,0.7159,-0.0146,0.6698,0.5493,-0.1831,-0.1831
1817501,0.7195,-0.0179,0.6685,-0.061,-0.061,0.061
1817521,0.7164,-0.0177,0.6693,-0.3052,0.1831,-0.1831
1817542,0.7136,-0.0161,0.6689,-0.5493,0.0,-0.1221
1817563,0.7131,-0.0168,0.6677,-0.5493,0.1221,-0.3052
1817583,0.7141,-0.0157,0.6685,-0.5493,0.061,-0.3662
1817603,0.7169,-0.0149,0.668,-0.3662,0.1831,-0.1221
1817623,0.7162,-0.0135,0.6687,-0.1831,-0.2441,0.0
1817643,0.717,-0.0105,0.6692,0.0,-0.1221,0.1831
1817663,0.7209,-0.0125,0.67,0.2441,-0.4272,0.3662
1817683,0.7191,-0.0138,0.6697,0.5493,-0.4883,0.6104
1817703,0.7189,-0.0134,0.6687,0.5493,-0.7324,0.6104
1817723,0.7183,-0.0133,0.6686,0.9766,-0.5493,0.7935
1817743,0.7177,-0.0149,0.6685,0.6714,-0.7324,0.8545
1817763,0.7164,-0.0127,0.6682,1.0376,-0.7324,1.0986
1817786,0.7151,-0.0109,0.6685,0.9155,-0.9766,1.3428
1817806,0.7141,-0.0096,0.6697,1.0986,-1.2817,1.4038
1817826,0.7136,-0.0104,0.6703,0.6714,-1.3428,1.4038
1817846,0.7146,-0.0128,0.6694,0.4272,-1.2207,1.2817
1817866,0.7168,-0.0144,0.6687,0.4883,-1.2817,1.0376
1817886,0.7157,-0.0132,0.6698,0.2441,-1.5259,0.9766
1817908,0.7126,-0.0128,0.6748,0.3052,-0.9155,0.7935
1817928,0.7124,-0.0116,0.6766,0.2441,-1.0986,0.5493
1817948,0.7098,-0.0123,0.6759,-0.061,-0.9155,0.6104
1817968,0.7126,-0.0105,0.6731,0.2441,-0.7935,0.6714
1817991,0.713,-0.0083,0.6736,0.2441,-0.6714,0.4272
1818011,0.7122,-0.0118,0.6729,0.3052,-0.7324,0.3052
1818031,0.7109,-0.0131,0.6726,0.6104,-0.7324,0.3052
1818051,0.7112,-0.0061,0.6711,0.6104,-0.6714,0.2441
1818074,0.709,-0.0094,0.6719,0.1221,-0.5493,0.061
1818094,0.7117,-0.0101,0.6741,0.5493,-0.6714,0.061
1818114,0.7114,-0.0109,0.6765,0.4883,-0.5493,0.061
1818134,0.715,-0.0078,0.6752,0.8545,-0.7935,0.1831
1818154,0.7135,-0.0111,0.677,0.9766,-0.8545,0.4883
1818174,0.7129,-0.009,0.6781,1.0376,-0.8545,0.6714
1818194,0.7125,-0.0089,0.6749,1.2817,-0.9155,0.6714
1818217,0.7114,-0.0111,0.67,1.4038,-0.6104,0.3662
1818237,0.7123,0.0002,0.6748,1.0376,-0.7324,0.3052
1818260,0.701,-0.0122,0.6737,2.0752,-1.0376,0.3662
1818281,0.7074,-0.0261,0.6737,1.4038,-0.6104,0.5493
1818301,0.7119,-0.0236,0.6766,0.3052,-0.2441,0.7324
1818321,0.7087,-0.0087,0.6776,0.7935,-0.1221,0.8545
1818341,0.7125,-0.0078,0.6763,1.0376,-0.2441,0.6104
1818361,0.7124,-0.0094,0.6754,0.8545,-0.2441,0.1831
1818381,0.7114,-0.0122,0.6736,1.0986,-0.061,0.2441
1818405,0.7158,-0.0137,0.6726,1.2817,0.0,0.3662
1818425,0.7156,-0.0146,0.6714,1.6479,-0.3052,0.6714
1818445,0.713,-0.0143,0.6699,1.9531,-0.6104,1.1597
1818466,0.7123,-0.0142,0.6722,1.6479,-0.5493,1.2817
1818486,0.7117,-0.0129,0.6743,2.0142,-0.7324,1.4038
1818506,0.7125,-0.0138,0.6735,2.1973,-0.2441,1.5259
1818526,0.7152,-0.0167,0.6722,2.1362,-0.4272,1.2207
1818546,0.7172,-0.0181,0.6704,1.5259,-0.4883,1.0376
1818569,0.7152,-0.0173,0.6715,1.3428,-0.6714,1.0376
1818589,0.7122,-0.017,0.6758,1.6479,-0.7935,0.9766
1818610,0.7117,-0.0186,0.6721,1.3428,-0.6104,1.1597
1818630,0.7136,-0.0204,0.6742,0.8545,-0.3662,1.1597
1818650,0.7104,-0.016,0.6759,0.5493,-0.1831,1.1597
1818670,0.7108,-0.0131,0.6752,0.4272,-0.1831,1.0986
1818694,0.7089,-0.0162,0.6758,0.061,-0.3052,1.0986
1818714,0.7102,-0.0117,0.6749,0.3052,-0.3052,0.9766
1818734,0.7112,-0.0088,0.673,0.4883,-0.3052,1.0376
1818754,0.7114,-0.0077,0.6724,0.6104,-0.4272,1.0376
1818775,0.7118,-0.0107,0.6733,0.4883,-0.4883,0.9155
1818796,0.7101,-0.0092,0.674,0.4272,-0.4272,0.8545
1818816,0.7111,-0.0104,0.677,0.3662,-0.4272,0.7324
1818836,0.7118,-0.0131,0.6766,0.1221,-0.3662,0.7324
1818856,0.7112,-0.0118,0.6766,0.1221,-0.3662,0.6104
1818876,0.7107,-0.0084,0.676,0.0,0.1221,0.6714
1818896,0.7101,-0.0048,0.6732,0.1221,0.1831,0.4883
1818919,0.7148,-0.0092,0.6718,0.4883,0.0,0.3052
1818939,0.7115,-0.0105,0.6699,0.3052,0.0,-0.061
1818959,0.7129,-0.0073,0.6693,0.3662,-0.3052,0.061
1818980,0.7094,-0.0081,0.6704,0.1831,0.0,0.1221
1819001,0.7144,-0.0096,0.6703,0.1831,-0.3662,0.3662
1819021,0.7177,-0.0081,0.675,0.061,-0.4272,0.3052
1819041,0.7167,-0.0057,0.6742,0.061,-0.2441,0.1221
1819061,0.7106,-0.0048,0.6755,0.3052,-0.1831,0.0
1819081,0.7115,-0.0074,0.6718,0.6714,0.1831,0.061
1819101,0.713,-0.0087,0.6702,0.5493,0.3052,0.2441
1819123,0.7124,-0.0085,0.6699,0.6104,-0.1221,0.3052
1819143,0.7115,-0.0084,0.6682,0.7324,-0.2441,0.1831
1819163,0.7111,-0.0067,0.6691,0.6104,0.061,0.0
1819183,0.7118,-0.007,0.6686,0.7935,-0.1831,0.1831
1819203,0.7162,-0.0104,0.6699,0.8545,-0.2441,0.2441
1819223,0.7172,-0.0103,0.6699,0.9766,-0.061,0.1221
1819247,0.7181,-0.0072,0.6707,1.2207,-0.3662,0.3052
1819271,0.7174,-0.0127,0.6675,1.3428,-0.6714,0.061
1819291,0.7188,-0.009,0.6688,1.4038,-0.5493,0.1221
1819312,0.7161,-0.0114,0.6692,1.77,-0.7324,0.4272
1819332,0.7163,-0.0215,0.6664,1.6479,-0.8545,0.4883
1819352,0.718,-0.0217,0.6666,1.2207,-0.5493,0.6104
1819372,0.7158,-0.0077,0.6696,1.1597,-0.7324,0.6714
1819392,0.7159,-0.0062,0.6678,1.6479,-0.8545,0.8545
1819412,0.717,-0.0121,0.668,1.5259,-0.9766,0.7324
1819432,0.7169,-0.0143,0.668,1.4648,-1.0986,0.7935
1819452,0.7167,-0.0166,0.6702,1.709,-1.2207,0.9766
1819472,0.7161,-0.0182,0.6718,1.6479,-1.3428,0.8545
1819492,0.7153,-0.0177,0.6719,1.4038,-1.3428,0.9766
1819512,0.7126,-0.017,0.674,1.1597,-1.3428,0.9766
1819532,0.7141,-0.0129,0.6733,0.9766,-1.5259,0.8545
1819552,0.7109,-0.0114,0.6759,0.9155,-1.4038,0.7935
1819572,0.7084,-0.0129,0.6764,1.0376,-1.3428,0.7324
1819592,0.7107,-0.0177,0.6755,0.8545,-1.2207,0.6714
1819613,0.7098,-0.0193,0.6766,0.061,-1.0376,0.7935
1819633,0.7074,-0.0176,0.6755,-0.2441,-0.9766,0.6104
1819653,0.7078,-0.0118,0.6763,-0.6714,-0.7935,0.6104
1819673,0.7078,-0.0089,0.6763,-0.5493,-0.9155,0.4272
1819693,0.7062,-0.0065,0.677,-0.2441,-0.7935,0.4272
1819713,0.707,-0.0076,0.679,-0.3662,-0.6104,0.3662
1819733,0.7073,-0.0055,0.6782,-0.1221,-0.7324,0.6104
1819753,0.708,-0.0048,0.6791,0.061,-0.7935,0.4272
1819773,0.7047,-0.0096,0.6796,0.1221,-0.7324,0.6104
1819793,0.7063,-0.0104,0.6799,0.2441,-0.6104,0.4272
1819813,0.7112,-0.0067,0.6771,0.1831,-0.7935,0.3662
1819834,0.7089,-0.0049,0.6775,0.4272,-0.6714,0.4883
1819854,0.7092,-0.0073,0.6776,0.6714,-0.6104,0.4883
1819874,0.7117,-0.0052,0.676,1.0376,-0.3662,0.4883
1819894,0.7073,-0.0013,0.6796,0.9155,-0.6104,0.8545
1819914,0.7048,-0.0164,0.6761,1.5869,-0.4272,0.8545
1819934,0.7084,-0.0198,0.6736,0.8545,0.1831,0.7935
1819954,0.7087,-0.0127,0.6753,1.0986,0.061,0.9766
1819976,0.7067,-0.0022,0.6765,1.0376,0.061,0.8545
1819996,0.709,-0.005,0.6755,1.2817,0.1831,1.0986
1820019,0.7117,-0.0107,0.6755,1.1597,-0.061,0.8545
1820041,0.7098,-0.0117,0.673,1.1597,-0.061,0.7935
1820061,0.7129,-0.011,0.6737,1.3428,0.0,1.1597
1820082,0.7153,-0.012,0.6729,0.9155,0.061,1.2817
1820102,0.7159,-0.0115,0.674,0.9766,-0.3662,1.3428
1820122,0.713,-0.0103,0.6755,1.2817,-0.4272,1.4648
1820142,0.714,-0.0094,0.6726,1.2207,-0.4883,1.3428
1820162,0.713,-0.009,0.673,1.2817,-0.4272,1.1597
1820182,0.713,-0.01,0.6682,1.0986,-0.6104,1.0986
1820202,0.7104,-0.0093,0.6704,0.6714,-0.2441,0.9155
1820222,0.7145,-0.0068,0.6694,0.6104,-0.1221,0.7324
1820242,0.7168,-0.0081,0.6702,0.4272,-0.061,0.3662
1820262,0.7168,-0.0106,0.6735,0.2441,-0.6104,0.4272
1820283,0.7161,-0.0088,0.6737,0.3662,-0.6104,0.2441
1820303,0.714,-0.007,0.6721,0.061,-0.7324,0.2441
1820324,0.7114,-0.0035,0.6732,0.0,-0.7324,0.1221
1820344,0.7107,-0.0031,0.6736,0.061,-0.7935,0.3052
1820367,0.7072,-0.0023,0.674,0.2441,-1.0376,0.4272
1820387,0.7081,-0.0024,0.6725,0.4272,-1.2207,0.4272
1820409,0.7075,-0.0021,0.6758,0.3052,-1.0986,0.5493
1820433,0.7085,-0.0048,0.6763,0.3662,-1.1597,0.3662
1820453,0.71,-0.0085,0.675,0.4883,-1.2817,0.3052
1820473,0.7115,-0.0115,0.6768,0.1831,-1.0376,0.2441
1820493,0.7123,-0.0083,0.6775,0.061,-0.5493,-0.061
1820515,0.7144,-0.0021,0.6698,0.7324,-0.1221,-0.061
1820536,0.7269,-0.0065,0.6604,0.8545,-0.9766,-0.2441
1820557,0.7131,-0.0135,0.673,0.061,-1.8311,-0.3662
1820577,0.704,-0.0093,0.6782,-0.1221,-1.2207,-0.9766
1820597,0.7072,-0.0043,0.6798,0.0,-0.6104,-1.2207
1820617,0.7103,0.0016,0.6744,0.0,-0.8545,-1.5869
1820637,0.7097,-0.0033,0.6788,0.2441,-1.0986,-1.5259
1820657,0.715,-0.0048,0.678,0.4883,-1.2817,-1.4648
1820677,0.7111,-0.0031,0.6774,0.4272,-2.0752,-1.1597
1820697,0.7114,-0.006,0.6755,1.1597,-2.1973,-0.5493
1820717,0.7111,-0.0022,0.675,0.9155,-2.0142,-0.3052
1820737,0.707,-0.0001,0.6766,1.77,-2.3193,0.0
1820758,0.7034,-0.0078,0.6768,1.8921,-2.4414,0.3662
1820778,0.7053,-0.0134,0.6794,2.3804,-2.5024,0.3662
1820801,0.7013,-0.0155,0.6819,2.1362,-2.3193,0.1831
1820821,0.699,-0.0121,0.6833,1.709,-2.3193,0.3052
1820842,0.6945,-0.0101,0.6868,2.0752,-2.4414,0.6104
1820862,0.6949,-0.0162,0.6877,1.5869,-2.3193,0.8545
1820882,0.7001,-0.0204,0.657,1.77,-2.2583,0.8545
1820902,0.7013,-0.0217,0.6887,1.2207,-2.1973,0.7324
1820922,0.6989,-0.0205,0.6892,1.1597,-2.3804,0.6104
1820942,0.6957,-0.0242,0.6898,0.6714,-1.9531,0.4272
1820962,0.697,-0.0289,0.6893,0.3052,-1.6479,0.061
1820982,0.6963,-0.0286,0.6914,-0.3662,-1.4038,-0.061
1821002,0.6946,-0.0234,0.6959,-0.4883,-1.4648,-0.2441
1821025,0.6925,-0.0168,0.699,-0.5493,-1.2207,-0.5493
1821045,0.6917,-0.0142,0.6956,-0.6104,-1.0986,-0.4883
1821065,0.6915,-0.0148,0.693,-0.4883,-1.2207,-0.5493
1821085,0.6901,-0.0142,0.6912,-0.5493,-1.2207,-0.3662
1821105,0.6882,-0.015,0.6936,-0.5493,-0.6714,-0.2441
1821125,0.6896,-0.0132,0.6959,-0.3052,-0.5493,-0.1831
1821148,0.689,-0.0099,0.6973,-0.061,-0.4883,0.1831
1821168,0.6901,-0.0112,0.6969,0.3662,-0.1221,0.3052
1821192,0.6947,-0.0138,0.6926,0.4272,0.0,0.5493
1821212,0.6963,-0.0129,0.6918,0.4883,0.3662,0.6104
1821232,0.6969,-0.0115,0.691,0.6104,0.1831,0.7324
1821252,0.6973,-0.0087,0.6902,0.4883,0.1221,0.8545
1821272,0.698,-0.0083,0.6888,0.9155,-0.1221,1.0376
1821292,0.6968,-0.0098,0.6899,1.0376,-0.2441,0.9766
1821312,0.6968,-0.0115,0.6908,1.1597,-0.3662,1.0986
1821332,0.6973,-0.0137,0.6887,0.6714,-0.7935,1.0376
1821352,0.6952,-0.0127,0.6886,0.2441,-0.6104,1.0376
1821372,0.6964,-0.0106,0.6885,0.0,-0.5493,0.9155
1821392,0.7029,-0.0111,0.6859,0.3662,-0.6104,0.9155
1821412,0.7046,-0.0098,0.6844,-0.061,-0.6714,0.7324
1821432,0.699,-0.0096,0.686,0.1221,-0.9155,0.4272
1821452,0.6992,-0.0085,0.6873,0.3052,-0.7935,0.4272
1821472,0.7006,-0.0073,0.6863,0.4272,-0.6104,0.4883
1821492,0.6987,-0.0118,0.6901,0.3052,-0.5493,0.5493
1821512,0.6979,-0.0129,0.696,0.4883,-0.4272,0.4272
1821532,0.6973,-0.012,0.6971,0.3662,-0.4272,0.061
1821552,0.6967,-0.0118,0.6949,0.4883,-0.2441,0.0
1821572,0.6934,-0.0117,0.6929,0.4883,0.1221,0.061
1821592,0.692,-0.0107,0.6885,0.4883,0.0,0.1221
1821612,0.6904,-0.0116,0.6877,0.7324,0.2441,0.4883
1821632,0.6877,-0.011,0.6891,0.9766,0.4883,0.6714
1821653,0.6871,-0.0106,0.6896,0.7935,0.4272,0.5493
1821673,0.6917,-0.0109,0.6881,0.8545,0.0,0.7935
1821695,0.6943,-0.0096,0.688,0.9766,0.1831,0.8545
1821715,0.6964,-0.0087,0.6903,0.7935,0.3052,0.9766
1821736,0.701,-0.0096,0.6913,0.7935,0.1221,1.0376
1821756,0.7036,-0.0104,0.6931,0.7324,0.0,0.7935
1821776,0.7002,-0.0105,0.6901,0.6104,0.061,0.7935
1821796,0.7019,-0.0132,0.6868,0.5493,0.061,0.9766
1821816,0.7004,-0.0115,0.6857,0.061,0.061,0.8545
1821836,0.6991,-0.0088,0.6843,-0.1831,0.1831,0.8545
1821856,0.6986,-0.0092,0.6841,-0.061,-0.061,0.7324
1821876,0.7002,-0.0084,0.6831,-0.1831,0.1221,0.6104
1821896,0.7007,-0.0074,0.6847,-0.4272,0.0,0.2441
1821916,0.7007,-0.0085,0.684,-0.3052,-0.2441,0.3662
1821936,0.7012,-0.0056,0.6854,-0.3052,-0.3662,0.0
1821956,0.7015,-0.0055,0.6862,-0.1221,-0.3662,-0.061
1821976,0.6996,-0.0072,0.6888,0.1221,-0.1221,0.0
1821996,0.7001,-0.0081,0.6887,0.1221,-0.1831,0.0
1822019,0.7001,-0.0073,0.6876,0.2441,-0.1221,0.2441
1822040,0.7012,-0.0062,0.687,0.2441,-0.061,0.3662
1822060,0.7021,-0.0068,0.6847,0.3662,-0.2441,0.4272
1822080,0.6979,-0.004,0.6858,0.3662,-0.4272,0.5493
1822102,0.6997,-0.0021,0.6852,0.6104,-0.3662,0.5493
1822123,0.6975,-0.0044,0.6852,0.6104,-0.4272,0.7935
1822143,0.6967,-0.0056,0.6853,0.4272,-0.2441,0.9766
1822163,0.6995,-0.005,0.6862,0.4272,-0.061,0.9155
1822183,0.7002,-0.0048,0.6853,0.8545,-0.061,0.8545
1822203,0.702,-0.0042,0.6846,0.7324,-0.3052,0.9155
1822223,0.7014,-0.0059,0.6835,0.8545,0.0,0.7324
1822243,0.7031,-0.005,0.6821,0.4883,-0.3052,0.7935
1822263,0.7048,-0.0056,0.6823,0.1831,-0.4272,0.7324
1822283,0.7037,-0.0043,0.6825,0.1221,-0.5493,0.6714
1822303,0.7053,-0.0077,0.6858,0.6104,-0.7935,0.4883
1822323,0.7059,-0.0055,0.6855,0.4272,-0.6104,0.2441
1822343,0.7029,-0.0037,0.6865,0.3662,-0.6714,0.3662
1822363,0.7001,-0.0032,0.6846,0.6104,-0.6714,0.4272
1822383,0.6998,-0.0048,0.6848,0.5493,-0.3662,0.4883
1822403,0.7006,-0.005,0.6818,0.4883,-0.4272,0.3052
1822423,0.6986,-0.0023,0.6843,0.6104,-0.1831,0.1831
1822443,0.6992,-0.0018,0.6826,0.6714,-0.2441,0.2441
1822463,0.6998,-0.0027,0.6833,0.7324,-0.2441,0.2441
1822483,0.7009,-0.0018,0.6847,1.1597,-0.7324,0.3052
1822503,0.7009,-0.004,0.6848,0.9766,-0.2441,0.4272
1822523,0.7014,-0.0039,0.6865,0.7324,-0.4272,0.4883
1822543,0.7003,-0.0035,0.687,0.7324,-0.4272,0.6104
1822563,0.7007,-0.0034,0.6848,0.7324,-0.4272,0.4883
1822583,0.703,-0.0042,0.6849,1.1597,-0.2441,0.4272
1822604,0.7042,-0.0056,0.6827,0.7935,-0.5493,0.3662
1822628,0.7017,-0.0033,0.6832,0.7935,-0.4272,0.3662
1822648,0.7012,-0.0033,0.6831,1.2817,-0.5493,0.4883
1822668,0.7007,-0.0044,0.684,0.9766,-0.3662,0.3662
1822689,0.7013,-0.0056,0.6821,0.9155,-0.2441,0.3052
1822709,0.7007,-0.0055,0.6833,0.7324,-0.1831,0.4272
1822729,0.7015,-0.007,0.6825,0.8545,0.0,0.1221
1822752,0.7032,-0.0051,0.6835,0.5493,-0.3662,0.1221
1822772,0.7019,-0.004,0.6847,0.6714,-0.2441,0.1221
1822792,0.7014,-0.0039,0.6837,0.7935,-0.2441,0.0
1822812,0.7041,-0.0033,0.6825,0.5493,-0.1221,0.1831
1822832,0.7039,-0.0035,0.6825,0.5493,-0.1831,0.0
1822853,0.7047,-0.0042,0.6809,0.7324,-0.2441,0.2441
1822874,0.7035,-0.0042,0.6824,0.5493,-0.4272,0.1831
1822895,0.7025,-0.0026,0.6837,0.9766,-0.6104,-0.1221
1822915,0.7035,-0.004,0.6818,0.6714,-0.3052,0.1831
1822936,0.7029,-0.0054,0.683,0.9766,-0.2441,0.061
1822956,0.7041,-0.0073,0.6825,0.6104,-0.6714,0.1831
1822976,0.7031,-0.0073,0.6836,0.9155,-0.4272,0.2441
1822996,0.7015,-0.0068,0.6821,1.0376,-0.4272,0.4272
1823016,0.7041,-0.0057,0.6809,0.7324,-0.5493,0.4272
1823039,0.7054,-0.0057,0.6816,0.9766,-0.5493,0.3662
1823060,0.7036,-0.0059,0.6823,0.7935,-0.4883,0.2441
1823081,0.7035,-0.0072,0.6819,1.0986,-0.4883,0.4883
1823101,0.7041,-0.0048,0.6801,0.9155,-0.3662,0.1831
1823121,0.7024,-0.0063,0.6821,0.9766,-0.7935,0.2441
1823141,0.7009,-0.0093,0.6846,1.1597,-0.6714,0.3662
1823162,0.7042,-0.0099,0.6838,0.7324,-0.7935,0.1831
1823182,0.7048,-0.007,0.6852,0.7935,-0.9155,0.3662
1823204,0.7034,-0.0071,0.6852,0.9766,-0.6714,0.6714
1823225,0.7031,-0.0051,0.6852,0.7324,-0.4272,0.7935
1823245,0.7001,-0.0067,0.6844,0.7324,-0.7935,0.6104
1823265,0.698,-0.0056,0.6841,0.7324,-0.6714,0.4272
1823285,0.6979,-0.005,0.6824,0.8545,-0.4883,0.6714
1823305,0.6995,-0.0043,0.6833,0.9766,-0.5493,0.6104
1823325,0.6996,-0.0051,0.6827,0.6714,-0.6104,0.6104
1823345,0.7023,-0.0046,0.6831,0.4883,-0.6714,0.6104
1823365,0.7032,-0.0046,0.6836,0.7324,-0.9155,0.6714
1823385,0.7017,-0.0043,0.6851,0.9155,-0.9155,0.6104
1823406,0.7014,-0.0016,0.6851,1.1597,-0.7935,0.7324
1823426,0.7013,-0.0045,0.6841,1.3428,-0.8545,0.9766
1823446,0.7037,-0.0059,0.6807,0.9155,-1.0986,1.0986
1823470,0.7061,-0.0103,0.6746,0.4272,-1.4038,1.2817
1823490,0.7102,-0.0085,0.6759,-0.1221,-1.5259,1.0986
1823510,0.7114,-0.0066,0.6763,-0.2441,-1.5259,1.0376
1823530,0.7114,-0.0022,0.6804,-0.061,-1.77,0.7935
1823550,0.707,0.0001,0.684,0.1831,-1.8311,0.6714
1823570,0.7039,-0.0005,0.6852,0.6714,-1.77,0.6714
1823590,0.7042,0.0042,0.6819,0.9766,-1.709,0.9155
1823610,0.7058,0.0,0.6812,2.3193,-1.8311,0.9766
1823631,0.7052,0.0016,0.6826,2.3193,-1.9531,0.9155
1823651,0.7032,0.0,0.6844,2.5635,-1.9531,0.9766
1823671,0.7025,-0.0022,0.6862,2.9297,-2.0752,0.6714
1823692,0.702,-0.0067,0.6844,2.9907,-2.5635,0.7324
1823712,0.7001,-0.0055,0.6849,2.9297,-2.9907,0.6104
1823732,0.6956,-0.0106,0.6896,3.1128,-3.1738,0.6714
1823753,0.6968,-0.0116,0.689,2.6855,-3.2349,0.4883
1823773,0.6946,-0.0129,0.6927,1.8311,-3.0518,0.0
1823793,0.6926,-0.0109,0.6954,1.77,-3.1738,-0.1221
1823813,0.6918,-0.0106,0.6969,1.8921,-3.2959,-0.1831
1823833,0.6877,-0.0127,0.7008,1.6479,-3.3569,-0.1831
1823853,0.6844,-0.0122,0.7046,1.8921,-3.6621,0.1831
1823873,0.6808,-0.0142,0.7073,1.709,-3.3569,0.3052
1823893,0.6768,-0.0166,0.7092,1.2207,-3.418,0.1831
1823913,0.6742,-0.0144,0.7109,1.3428,-2.8687,0.4272
1823933,0.6721,-0.0173,0.7097,0.7935,-3.0518,0.5493
1823953,0.6697,-0.0177,0.7098,0.6104,-2.5024,0.5493
1823976,0.6681,-0.0162,0.7124,0.1831,-2.2583,0.4272
1823996,0.6692,-0.016,0.713,0.1831,-1.8921,0.3662
1824016,0.6719,-0.0145,0.7145,-0.3662,-1.709,0.1831
1824036,0.6704,-0.0157,0.7145,-0.2441,-1.5259,0.3662
1824056,0.6707,-0.0144,0.7144,-0.3052,-1.2817,0.1221
1824076,0.6705,-0.0115,0.7153,-0.3662,-1.2207,-0.1221
1824096,0.6753,-0.0175,0.7146,-0.4272,-1.0376,0.061
1824116,0.6791,-0.0192,0.7108,-0.7935,-0.7935,-0.1221
1824136,0.6815,-0.0165,0.7075,-1.0376,-0.8545,-0.2441
1824156,0.6805,-0.0137,0.7086,-0.8545,-1.2207,-0.2441
1824176,0.6801,-0.0107,0.708,-1.1597,-0.9155,-0.1221
1824196,0.6816,-0.0104,0.7048,-1.2817,-1.0986,-0.3662
1824220,0.6729,-0.0123,0.7051,-1.5259,-0.8545,-0.3662
1824240,0.672,-0.0114,0.7086,-1.6479,-0.6104,-0.6714
1824260,0.6729,-0.0042,0.7119,-1.709,-0.1221,-0.6104
1824283,0.6726,0.0001,0.7159,-1.3428,-0.3052,-0.7935
1824303,0.6714,-0.0006,0.7158,-1.3428,-0.4883,-0.3662
1824323,0.6696,-0.0007,0.7129,-1.3428,-0.4272,-0.1221
1824343,0.6677,0.0001,0.7126,-1.5259,-0.4883,0.2441
1824363,0.6647,0.007,0.7137,-0.9766,-0.3052,0.9155
1824383,0.667,0.0092,0.7167,-0.1831,0.061,1.0376
1824404,0.6699,0.0095,0.7189,0.5493,0.2441,0.9766
1824424,0.675,0.0093,0.7152,1.0986,0.9766,0.9155
1824444,0.6803,0.0059,0.709,1.6479,0.6714,0.4883
1824465,0.6812,0.0028,0.7078,2.2583,0.9155,0.6104
1824485,0.6841,0.0,0.7059,2.5635,0.7324,0.7324
1824505,0.6841,-0.0037,0.7035,2.5024,0.7324,0.6714
1824525,0.6826,-0.0057,0.7026,2.7466,0.5493,0.3662
1824545,0.6803,-0.0085,0.7029,2.3804,0.9155,0.3052
1824565,0.682,-0.0129,0.7023,2.0142,1.2207,0.061
1824585,0.6868,-0.0114,0.7006,1.8311,1.2817,0.061
1824605,0.6874,-0.0095,0.7,1.8311,1.0986,0.1831
1824625,0.6882,-0.0099,0.6998,1.709,1.4038,0.1221
1824646,0.6885,-0.011,0.7003,1.4038,1.1597,0.1221
1824666,0.688,-0.0104,0.6998,1.2207,0.5493,0.061
1824686,0.6873,-0.0112,0.6969,1.1597,0.8545,-0.061
1824706,0.6918,-0.012,0.6935,0.9766,1.1597,-0.1221
1824726,0.6941,-0.0162,0.6954,0.6714,0.6714,0.0
1824746,0.6869,-0.0144,0.6995,0.3052,0.4272,-0.1221
1824766,0.6874,-0.0078,0.6991,0.4272,0.3052,0.1221
1824786,0.6907,-0.0084,0.6991,0.6104,-0.061,0.1221
1824806,0.6913,-0.0121,0.6973,0.5493,-0.3662,0.2441
1824826,0.6892,-0.0132,0.6989,0.7935,0.0,0.1831
1824846,0.6881,-0.0107,0.6963,0.9155,0.1221,0.4272
1824866,0.6899,-0.0125,0.6964,0.6714,0.2441,0.6104
