timestamp,ax,ay,az,gx,gy,gz
565882,0.9562,-0.0146,0.2736,1.2207,-3.9673,-2.1973
565902,0.9673,-0.0439,0.2657,1.1597,-8.667,-0.5493
565925,0.9479,-0.0779,0.2482,0,-10.2539,-0.4883
565945,0.9528,-0.0886,0.257,0.2441,-8.8501,-1.709
565965,1.0042,-0.0737,0.2581,-0.5493,-5.127,-2.5024
565985,1.0007,-0.062,0.2539,0.3662,-7.4463,-3.1128
566005,0.9785,-0.052,0.2379,1.6479,-8.606,-3.6011
566025,0.9575,-0.0431,0.2281,2.3193,-8.667,-2.7466
566045,0.9558,-0.0454,0.2185,2.3193,-8.8501,-1.5869
566065,0.943,-0.0432,0.2053,2.9907,-10.498,0
566085,0.9221,-0.0338,0.2126,4.2725,-14.4043,1.0376
566105,0.8959,-0.0529,0.2087,5.0659,-18.8599,2.3804
566128,0.8828,-0.0894,0.2076,3.1738,-17.334,2.5024
566149,0.9109,-0.1008,0.2107,1.4648,-14.7705,1.77
566169,0.9352,-0.0908,0.2286,0.5493,-13.3057,1.1597
566189,0.9257,-0.0856,0.2236,0.3052,-13.3057,0.3662
566209,0.9091,-0.0814,0.2412,-0.5493,-12.146,0.5493
566229,0.9189,-0.0939,0.2404,-1.0376,-11.7188,2.5024
566249,0.9326,-0.0933,0.2343,-4.0894,-10.1929,3.9673
566269,0.9137,-0.082,0.2357,-4.8828,-10.0708,4.6997
566289,0.901,-0.0741,0.2332,-6.2866,-9.0332,4.8218
566309,0.8954,-0.0566,0.2344,-6.2866,-9.2163,4.2725
566330,0.8925,-0.0312,0.2371,-5.3711,-8.9722,4.3335
566350,0.9098,-0.0234,0.2476,-5.9204,-7.0801,5.188
566370,0.9496,-0.0166,0.2557,-7.5684,-4.4556,7.3242
566390,0.9829,-0.0188,0.2625,-8.9722,-3.8452,8.3618
566412,0.9814,-0.0212,0.265,-11.2915,-3.479,7.9346
566432,0.9908,-0.033,0.271,-13.855,-0.1831,7.5073
566452,1.0144,-0.0377,0.2585,-16.3574,3.6621,6.5308
566472,1.0286,-0.0398,0.2603,-16.6626,2.5024,4.9438
566492,1.0244,-0.0482,0.2723,-17.395,2.6855,3.7842
566512,1.0234,-0.0486,0.2883,-20.2026,5.4932,3.7231
566532,1.0468,-0.017,0.2834,-20.9351,9.8877,3.0518
566552,0.9983,0.0133,0.3026,-16.4185,9.7656,1.8921
566573,0.9812,0.0559,0.3591,-14.0991,9.8877,2.9907
566593,0.9824,0.0564,0.3907,-12.7563,11.7188,6.4087
566613,0.9675,0.0472,0.4143,-13.4277,15.9302,9.2163
566635,0.9514,0.0599,0.4391,-14.2212,14.4653,6.7139
566655,0.9172,0.0779,0.4547,-15.0146,14.5874,4.5776
566675,0.9778,0.1001,0.4247,-16.7847,14.5874,2.6245
566696,0.9192,0.1481,0.4802,-16.6626,4.3945,0.061
566716,0.9136,0.1652,0.4358,-15.3198,-0.8545,-1.0986
566736,0.8899,0.1553,0.4346,-13.0615,-2.7466,-2.6855
566756,0.9092,0.1462,0.4113,-11.5967,0.1221,-6.1035
566777,0.9125,0.1406,0.3367,-8.5449,4.3335,-7.9346
566798,0.8752,0.1429,0.3121,-7.3242,8.667,-10.376
566818,0.8572,0.1318,0.2737,-4.2725,12.3901,-9.0942
566838,0.8599,0.1129,0.2363,-3.9673,15.9302,-7.2021
566858,0.8092,0.0931,0.21,-0.6714,11.4136,-5.188
566878,0.8156,0.1021,0.188,1.5259,8.1787,-4.0283
566898,0.7795,0.0851,0.1801,2.8687,3.0518,-2.8076
566922,0.7571,0.0828,0.1809,5.0659,-1.1597,-2.7466
566942,0.78,0.0913,0.1805,7.6904,-3.6621,-2.5635
566962,0.8025,0.1013,0.1887,8.1177,-5.7373,-1.8921
566983,0.8479,0.1071,0.2191,6.8359,-6.958,-1.2817
567003,0.8849,0.0929,0.2328,5.5542,-5.6152,-0.5493
567023,0.9138,0.0723,0.2329,2.8687,-3.7842,0.1831
567043,0.9429,0.061,0.2263,2.0142,-4.5776,1.5869
567063,0.9691,0.0691,0.2864,3.7842,-5.0049,-1.2817
567086,1.0015,0.1003,0.2686,8.1177,-4.0894,-4.8828
567106,1.0238,0.0972,0.2855,9.8267,-1.5259,-6.958
567126,1.0363,0.0548,0.2714,6.958,3.9673,-6.1646
567146,1.0358,0.0383,0.2714,6.7139,5.249,-8.3618
567166,1.123,0.062,0.3093,7.0801,9.7656,-11.3525
567187,1.2339,0.0598,0.2277,8.3008,8.4229,-11.5356
567207,0.9325,0.0034,0.3276,10.437,4.3945,-13.1226
567227,0.9346,0.0272,0.3605,10.498,8.9111,-10.376
567247,1.0424,0.0244,0.3846,12.9395,11.1084,-2.0142
567267,1.0396,-0.0486,0.4,11.2915,14.2212,2.9297
567287,0.9973,-0.1189,0.4098,8.606,16.4795,4.8218
567307,1.0128,-0.1171,0.4274,10.437,11.9629,4.5166
567327,0.9951,-0.0784,0.4161,15.1978,4.1504,4.7607
567350,0.9435,-0.0739,0.3978,18.7378,-2.0142,4.0894
567370,0.8964,-0.075,0.3676,20.1416,-5.4932,3.9062
567391,0.8789,-0.093,0.3596,19.104,-3.7842,5.188
567411,0.943,-0.0939,0.3092,16.4795,-3.2959,8.1177
567431,0.8673,-0.1023,0.2959,16.3574,-7.2632,8.5449
567452,0.8322,-0.1096,0.2755,13.3667,-7.6294,7.4463
567472,0.8425,-0.1003,0.2571,8.5449,-6.2866,7.8735
567512,0.8315,-0.1067,0.2404,4.3335,-17.0288,4.6387
567536,0.7766,-0.0865,0.2266,1.5259,-15.625,4.0283
567556,0.7362,-0.0796,0.2129,-2.0142,-8.1787,5.6152
567576,0.7194,-0.0958,0.2078,-3.479,-8.1177,3.9062
567596,0.7477,-0.0989,0.2017,-4.8218,-5.0049,4.3335
567616,0.7936,-0.0952,0.2206,-6.8359,-5.0659,3.1128
567636,0.8096,-0.0864,0.2579,-5.7373,-5.5542,0.8545
567656,0.8428,-0.0875,0.2601,-6.7139,-4.4556,-0.4883
567676,0.8865,-0.0712,0.2776,-7.1411,-1.3428,-0.7935
567696,0.8947,-0.0621,0.2825,-6.897,1.6479,0.7935
567716,0.9663,-0.05,0.2947,-8.4229,6.7139,2.9297
567736,1.0393,-0.0347,0.2727,-9.8267,8.1787,5.188
567756,1.0658,-0.0159,0.2515,-9.4604,5.6763,8.606
567776,1.0986,-0.0153,0.2999,-9.3994,6.7749,10.0098
567796,1.2722,0.0046,0.3254,-8.5449,8.728,10.0708
567816,1.2351,0.0839,0.3452,0.4272,2.1362,7.6904
567838,1.1318,0.0916,0.436,-0.3052,-2.5024,7.5073
567858,1.1128,0.0692,0.4365,0.061,3.3569,8.8501
567878,1.0117,0.0829,0.4818,-1.0986,4.3335,7.9956
567898,0.8916,0.0719,0.4968,-2.9907,7.2632,7.019
567918,0.9081,0.0276,0.4325,-10.6201,13.2446,6.897
567938,0.9255,-0.0061,0.4672,-19.2261,12.146,4.3945
567962,0.9521,0.0347,0.4221,-25.1465,8.7891,-2.9907
567986,0.9312,0.1002,0.4384,-23.7427,4.5776,-12.0239
568006,0.9792,0.1083,0.3606,-21.1182,1.9531,-14.0991
568026,0.9091,0.1636,0.3335,-19.6533,0.3662,-13.2446
568046,0.8477,0.1776,0.2952,-14.8315,-1.2817,-11.3525
568066,0.7921,0.1561,0.2717,-10.7422,-5.8594,-8.1787
568107,0.748,0.0947,0.2181,-5.4932,2.8076,-4.5166
568127,0.6985,0.0731,0.1947,-1.0376,0.7324,-5.7983
568147,0.6772,0.085,0.1921,1.8311,-1.0376,-7.0801
568167,0.6921,0.0879,0.165,3.418,-0.5493,-5.0659
568187,0.7747,0.0873,0.1781,3.6621,-1.4648,-2.8687
568207,0.783,0.0615,0.1798,4.3945,-4.3335,-3.0518
568229,0.8287,0.0632,0.1692,6.5918,-6.7749,-4.4556
568249,0.8315,0.0601,0.2017,5.0659,-6.8359,-5.127
568269,0.8723,0.078,0.2081,3.9062,-1.0986,-3.6011
568289,0.9532,0.1147,0.2244,6.3477,0.2441,-3.8452
568309,1.0331,0.1156,0.2136,9.3384,0.6104,-4.3335
568329,1.1001,0.0704,0.2242,9.1553,-0.6714,-5.0659
568349,1.1167,0.0571,0.2234,8.0566,-1.4648,-5.0659
568369,1.1447,0.051,0.2521,7.8125,-3.8452,-6.7749
568389,1.1677,0.0608,0.3044,12.3901,-5.188,-10.0098
568409,1.2756,0.0167,0.2517,13.1226,-4.3335,-10.8643
568429,0.9745,-0.033,0.3838,10.0708,-0.4883,-11.8408
568449,0.9165,-0.0151,0.4757,11.1084,10.7422,-9.7046
568469,1.0828,-0.0444,0.4232,12.4512,10.7422,-3.418
568489,1.031,-0.1421,0.4769,8.4839,14.8926,2.3193
568509,1.0168,-0.1562,0.4736,8.4839,12.8784,3.9673
568529,1.0085,-0.1558,0.4712,12.3291,4.7607,3.7842
568549,1.0133,-0.1577,0.4513,12.9395,-0.9766,4.2114
568569,0.9332,-0.1392,0.4254,15.0757,-3.7842,3.6011
568589,0.9365,-0.1072,0.4133,15.564,-1.8921,3.7842
568609,0.9207,-0.0771,0.347,16.7236,-4.6387,8.0566
568629,0.8756,-0.0706,0.3134,15.3809,-2.5635,8.606
568649,0.7992,-0.0347,0.2599,12.2681,-1.2817,13.5498
568669,0.7975,-0.0446,0.2479,10.8643,-5.3101,10.3149
568693,0.724,-0.0695,0.2151,10.3149,-10.7422,11.5356
568713,0.7427,-0.0873,0.2191,5.5542,-6.3477,13.9771
568733,0.7488,-0.0859,0.1996,2.6245,-6.8359,8.3008
568753,0.7098,-0.0676,0.2169,4.0894,-10.3149,3.0518
568777,0.7081,-0.0673,0.2076,5.4932,-11.6577,1.77
568797,0.7511,-0.08,0.2068,3.479,-9.2773,1.4038
568817,0.7772,-0.098,0.2023,1.2817,-10.2539,2.5635
568837,0.7781,-0.1265,0.2288,-3.6011,-3.6011,1.5259
568857,0.8187,-0.1207,0.2312,-4.3335,-1.8921,1.4648
568877,0.8926,-0.08,0.2554,-1.3428,-1.8311,1.2817
568897,0.9565,-0.0597,0.2655,-2.6855,3.54,1.3428
568917,1.0507,-0.0867,0.2742,-7.019,6.5918,5.4932
568937,1.1162,-0.0939,0.2709,-11.2915,4.0283,7.0801
568957,1.0913,-0.0692,0.2646,-12.207,-2.5635,9.2163
568980,1.1355,-0.0558,0.3674,-14.6484,-0.2441,8.667
569000,1.3684,0.0011,0.3347,-11.5967,6.1035,10.9863
569020,1.1167,0.0588,0.5032,-2.3804,-2.7466,8.7891
569040,1.0613,0.04,0.4708,-3.9062,6.958,9.8877
569060,1.0028,0.0411,0.5148,-8.8501,16.9678,8.4839
569081,0.9463,0.0571,0.5337,-9.2163,13.4888,5.5542
569101,0.9575,0.0319,0.4688,-16.6626,16.1743,2.1973
569122,1.0386,0.0281,0.4844,-24.231,15.0146,-0.4272
569142,1.0021,0.0413,0.4402,-24.4751,6.2256,-7.5073
569162,0.9055,0.1002,0.4517,-26.3062,11.1084,-14.2822
569182,0.9606,0.1208,0.3354,-22.2778,13.4888,-17.0898
569202,0.9587,0.1166,0.3099,-19.7144,10.1318,-16.8457
569224,0.8756,0.11,0.2654,-16.6016,5.6763,-12.9395
569244,0.8325,0.1115,0.2556,-14.0381,3.9062,-8.1787
569264,0.775,0.1016,0.2217,-10.8643,-1.6479,-6.8359
569285,0.7306,0.1013,0.2028,-6.6528,-2.3804,-5.4932
569305,0.7162,0.1038,0.1718,-0.6714,-4.4556,-5.0049
569325,0.6802,0.0736,0.1711,2.9907,-6.4697,-4.5776
569345,0.6792,0.0475,0.1655,2.5635,-4.2114,-2.9297
569365,0.7014,0.0375,0.1577,1.8921,-7.5073,-1.0376
569385,0.7264,0.0193,0.1698,-0.7324,-7.6904,-1.709
569405,0.7656,0.0156,0.2003,-3.2349,-7.1411,-2.5635
569425,0.8251,0.0243,0.2129,-3.418,-5.6152,-3.1738
569445,0.9392,0.0387,0.2299,-3.1128,-2.6245,-5.7983
569465,0.9833,0.0593,0.2301,-2.3804,-3.3569,-7.3853
569485,1.0277,0.0841,0.2574,2.0752,-1.5259,-9.0332
569505,1.1289,0.1013,0.2416,3.9673,-2.2583,-8.606
569525,1.1569,0.08,0.2445,3.1738,-5.188,-7.7515
569545,1.0836,0.0735,0.3162,7.9346,-7.6904,-9.3994
569565,1.3014,0.0861,0.3235,11.3525,0.6714,-6.7749
569586,1.0665,0.0156,0.4407,14.4043,-3.7231,-6.2256
569606,0.9324,0.0234,0.5393,18.1274,6.2866,-7.4463
569626,1.0681,0.0067,0.4935,21.9116,18.2495,-4.0894
569646,1.0509,-0.1412,0.4487,18.6768,19.043,1.3428
569669,0.9772,-0.219,0.4646,10.0098,23.1323,2.7466
569689,1.0261,-0.1925,0.438,13.2446,22.583,2.9297
569709,0.9972,-0.1417,0.3824,20.752,6.1035,2.9297
569729,0.9265,-0.1149,0.3833,24.1699,2.4414,5.0049
569749,0.9591,-0.1045,0.3562,25.0244,0.1831,7.2632
569769,0.9277,-0.0977,0.3036,24.5361,-5.6763,9.7656
569791,0.8384,-0.1078,0.2673,19.4702,-1.8921,9.4604
569811,0.8256,-0.1099,0.2295,11.7798,2.5024,11.2915
569832,0.8005,-0.1157,0.1954,10.6201,-8.728,13.4888
569852,0.7721,-0.1243,0.1938,6.5918,-15.5029,17.4561
569874,0.7716,-0.1343,0.1809,1.709,-13.2446,15.564
569894,0.739,-0.1298,0.2029,0.4883,-16.1743,6.897
569915,0.7117,-0.1122,0.1891,0.8545,-13.5498,3.6621
569935,0.736,-0.1042,0.1992,-0.6714,-13.0615,2.6855
569995,0.7709,-0.1399,0.196,-9.3384,-7.8735,3.479
570024,0.903,-0.0776,0.2305,-9.3384,-5.4321,3.7231
570044,0.9415,-0.0488,0.2676,-8.3618,-4.2114,3.7842
570064,0.9756,-0.0659,0.2711,-11.3525,-1.1597,5.3711
570086,1.0492,-0.069,0.2737,-15.1367,-0.9155,9.1553
570106,1.0477,-0.0526,0.2727,-16.4185,-1.0376,10.0098
570126,1.0956,-0.0602,0.4048,-19.7754,5.5542,10.3149
570146,1.2329,-0.0442,0.3373,-18.5547,11.6577,9.4604
570166,1.1853,0.0693,0.4615,-9.0332,3.2349,7.5684
570186,1.1355,0.1101,0.4811,-7.8125,6.4087,6.2866
570206,1.1195,0.108,0.4744,-7.9346,14.1602,6.4087
570226,1.0671,0.1346,0.5033,-6.4087,8.3618,5.3101
570246,0.995,0.126,0.5031,-8.4229,7.0801,6.5308
570269,0.9524,0.0723,0.4973,-15.0757,8.9722,5.0659
570289,1.0009,0.0486,0.4233,-20.6299,7.0801,-4.1504
570309,0.9448,0.0704,0.4303,-22.522,5.0659,-15.3198
570332,0.9473,0.0731,0.3445,-20.874,6.7749,-18.0664
570352,0.942,0.0842,0.3079,-19.8975,6.7749,-20.9351
570372,0.8601,0.1301,0.2577,-12.8174,6.958,-20.6299
570392,0.8224,0.1238,0.235,-12.146,6.4087,-17.5171
570414,0.7549,0.106,0.1985,-9.8877,6.7749,-14.4043
570434,0.7228,0.0786,0.1692,-4.9438,2.1362,-13.0615
570454,0.6986,0.0569,0.1731,-0.4272,-3.8452,-12.0239
570474,0.6733,0.0476,0.1597,2.6245,-9.1553,-8.606
570494,0.6913,0.0392,0.1569,3.418,-11.8408,-5.249
570514,0.7491,0.0616,0.1656,1.5259,-10.0708,-3.7231
570534,0.7788,0.0643,0.1606,1.709,-10.5591,-2.2583
570554,0.8069,0.0304,0.1866,1.77,-11.4136,0.3662
570574,0.8682,0.0208,0.2012,1.1597,-13.0615,-0.6714
570594,0.8907,0.0464,0.2285,2.3193,-15.9912,-1.9531
570614,0.9663,0.089,0.2349,5.3101,-11.3525,-2.7466
570634,0.9977,0.0938,0.2438,9.5215,-5.9814,-3.9062
570654,1.0254,0.0964,0.2521,10.498,-6.1646,-3.6011
570674,1.1063,0.0797,0.2533,11.3525,-6.1035,-2.5024
570694,1.1061,0.0656,0.2666,11.6577,-8.728,-3.3569
570714,1.1547,0.0731,0.3624,15.1978,-7.5073,-9.0942
570734,1.301,0.0115,0.3221,13.4277,-0.6104,-6.958
570754,1.1688,-0.0752,0.4071,11.2915,-1.8921,-8.1177
570775,1.068,-0.094,0.474,10.3149,0.4883,-7.5684
570795,1.1041,-0.1495,0.5044,6.1646,3.479,-5.7983
570816,1.0033,-0.2117,0.5165,6.7139,2.8076,-1.3428
570836,0.9446,-0.1709,0.5166,9.5825,5.9814,1.0376
570856,0.9674,-0.1094,0.4674,16.7847,4.5166,6.1646
570876,0.975,-0.114,0.4391,17.7612,1.709,10.6812
570896,0.9058,-0.1394,0.4293,16.5405,5.5542,15.4419
570916,0.9272,-0.123,0.3578,16.7236,6.8359,16.0522
570936,0.908,-0.0964,0.3425,15.9912,1.1597,16.2354
570956,0.823,-0.087,0.3188,11.7188,-0.8545,13.9771
570976,0.7863,-0.1001,0.2615,6.1035,0.4883,11.7798
570996,0.7943,-0.1012,0.2339,7.1411,-8.1787,13.3667
571016,0.697,-0.1056,0.2111,7.5684,-13.2446,13.2446
571037,0.7189,-0.1027,0.2168,2.0752,-7.5073,12.5732
571058,0.7635,-0.0673,0.2107,-2.5635,-5.6152,6.8359
571079,0.7482,-0.0687,0.2064,-1.5869,-13.4277,3.479
571099,0.746,-0.0728,0.2061,-2.4414,-14.2822,3.8452
571119,0.7354,-0.0895,0.2144,-4.4556,-13.5498,2.6245
571139,0.7419,-0.1207,0.228,-4.3335,-14.0381,1.77
571159,0.7897,-0.1257,0.2529,-7.4463,-7.3242,1.2207
571181,0.8508,-0.1029,0.2587,-8.1787,-3.1128,1.9531
571201,0.9408,-0.0558,0.2617,-6.2866,-4.0283,2.6245
571221,0.9476,-0.0537,0.2798,-5.9204,-5.3711,5.4932
571241,1.0123,-0.1038,0.2826,-13.7939,-0.1831,5.6152
571261,1.051,-0.0868,0.2811,-18.7988,3.1128,5.7373
571281,1.0374,-0.0516,0.2874,-17.7612,1.0986,5.9814
571301,1.1703,-0.0328,0.4243,-16.4795,6.1035,7.1411
571321,1.3845,0.031,0.3538,-12.4512,3.7231,13.1226
571341,1.1984,0.0796,0.5413,-3.0518,-7.9956,12.6343
571361,1.0597,0.0797,0.5533,-2.9297,-5.9814,10.9253
571384,0.9858,0.1342,0.5514,-5.8594,11.3525,7.6904
571404,0.9556,0.109,0.5859,-7.3242,11.7188,2.8076
571424,1.0256,0.0709,0.5269,-21.7285,14.6484,1.1597
571444,0.9843,0.0648,0.5066,-25.3296,2.9907,-2.3804
571464,0.8774,0.0555,0.4961,-28.8696,-0.1221,-8.7891
571484,0.8535,0.0724,0.4617,-28.0762,10.2539,-17.0898
571504,0.9425,0.1058,0.3954,-24.8413,17.5781,-19.6533
571524,0.9138,0.1255,0.3611,-17.1509,8.9111,-20.0806
571544,0.825,0.1252,0.3135,-14.8926,4.5776,-16.7847
571564,0.7969,0.1359,0.2897,-15.0146,3.1738,-10.376
571585,0.7709,0.0923,0.266,-16.1743,3.2959,-8.606
571605,0.7542,0.0864,0.2626,-15.0146,3.2349,-8.9722
571626,0.7153,0.0822,0.2278,-6.4697,-6.8359,-10.8032
571646,0.6697,0.0692,0.2303,-2.0142,-9.7656,-11.9019
571666,0.6643,0.074,0.2253,1.0986,-9.9487,-7.6904
571686,0.7289,0.0798,0.2148,2.0752,-4.6387,-3.418
571706,0.7556,0.0806,0.225,2.0142,-1.77,-1.77
571726,0.7689,0.0649,0.23,3.7842,-5.0049,-3.2959
571747,0.7683,0.0856,0.2598,5.6763,-4.8828,-4.1504
571767,0.9142,0.1241,0.2755,5.9204,-0.061,-1.4648
571787,0.983,0.1229,0.2875,7.5684,-6.0425,-0.9766
571807,0.9891,0.1101,0.2928,8.3618,-6.1646,-2.1362
571827,1.062,0.0779,0.2793,6.4087,-0.4883,-3.418
571848,1.0979,0.0593,0.2704,5.188,2.3804,-6.6528
571868,1.1144,0.0723,0.3423,9.6436,3.8452,-13.6108
571888,1.3115,0.0216,0.256,10.8643,4.8218,-15.8081
571908,1.2233,-0.015,0.3107,9.0942,3.9062,-18.1274
571928,1.0255,0.006,0.4791,11.1694,7.4463,-18.6768
571948,1.0546,-0.0283,0.4355,13.855,8.0566,-14.3433
571968,1.0132,-0.1892,0.5096,6.0425,16.9067,-4.7607
571988,0.9746,-0.222,0.4819,-0.1221,20.2026,-0.7935
572008,0.9651,-0.1868,0.4778,-0.9155,17.5781,-0.4883
572028,0.999,-0.1509,0.4657,4.8828,9.8267,0.5493
572068,0.9166,-0.1221,0.4006,7.2632,6.6528,4.8218
572089,0.9192,-0.1028,0.3328,4.2725,10.437,4.5166
572109,0.8912,-0.1125,0.2983,-0.2441,2.5635,6.5918
572129,0.8303,-0.1483,0.2512,-2.0752,-5.9814,7.6294
572150,0.7906,-0.1218,0.2589,-6.6528,-11.9019,9.5825
572170,0.7943,-0.1278,0.2406,-9.1553,-15.1367,10.0098
572190,0.7957,-0.1459,0.2524,-15.564,-10.7422,6.7749
572230,0.7572,-0.1127,0.2302,-22.8882,-11.1084,-1.0986
572250,0.7222,-0.0928,0.2295,-22.3999,-13.0005,-3.2349
572272,0.7336,-0.0552,0.2421,-22.3389,-12.9395,-4.1504
572296,0.748,-0.0547,0.2504,-21.1792,-12.4512,-4.8218
572316,0.7765,-0.0635,0.2402,-23.3154,-8.3008,-3.2349
572336,0.8463,-0.0538,0.2456,-24.7803,-5.3711,-1.6479
572356,0.8568,-0.0427,0.275,-23.5596,-4.4556,-1.5259
572376,0.8937,-0.0331,0.2639,-23.6816,-1.6479,-1.4648
572396,0.9714,-0.0487,0.2849,-25.3296,0.2441,-0.9155
572416,1.0367,-0.0609,0.2819,-30.5176,1.1597,-0.1221
572436,1.0035,-0.0212,0.2972,-30.6396,0.5493,-0.061
572456,0.9868,-0.0205,0.3248,-31.0059,2.9297,-0.2441
572476,1.1025,-0.037,0.3806,-32.7759,8.4229,-0.5493
572496,1.2738,0.04,0.3093,-29.541,13.3667,2.7466
572516,1.1597,0.0883,0.476,-23.5596,12.085,0.3662
572536,1.2296,0.1212,0.4862,-21.3623,17.4561,2.3804
572556,1.1672,0.1195,0.4542,-23.3765,14.5264,3.9062
572580,0.9427,0.139,0.493,-24.0479,-1.2817,4.1504
572600,0.9175,0.0929,0.4038,-33.02,5.0049,4.6997
572620,0.9263,0.0625,0.4137,-44.7998,1.5869,0.061
572640,0.9122,0.0873,0.3827,-46.0205,1.8921,-9.0942
572663,0.8674,0.1498,0.3737,-39.6729,3.6621,-27.2217
572704,0.9027,0.209,0.281,-32.1045,14.4043,-25.0854
572724,0.8856,0.208,0.2452,-30.6396,5.4321,-17.4561
572744,0.8625,0.1348,0.2483,-31.4331,-6.2866,-16.7847
572764,0.7833,0.1189,0.2339,-34.0576,-7.8125,-15.2588
572786,0.7762,0.1284,0.2316,-32.1655,-10.6812,-14.5874
572806,0.7512,0.1241,0.2383,-26.8555,-14.7095,-16.5405
572826,0.7184,0.1292,0.2358,-20.3857,-17.2729,-16.7847
572846,0.7207,0.1489,0.2396,-17.7612,-15.8081,-15.686
572866,0.7618,0.1455,0.2386,-15.9302,-11.6577,-14.9536
572886,0.7594,0.1505,0.2482,-12.3291,-4.0283,-12.5122
572906,0.7932,0.1532,0.2665,-8.3618,-4.5776,-10.437
572926,0.8217,0.1599,0.2749,-4.6387,-5.6763,-10.8032
572946,0.8676,0.1458,0.2682,-1.9531,-2.8687,-7.9956
572966,0.9272,0.1161,0.2864,-3.6011,5.3711,-4.8828
572986,1.047,0.0759,0.2822,-3.6621,2.5024,-5.4321
573006,1.1194,0.0444,0.262,-5.5542,-0.5493,-6.4087
573026,1.0959,0.0171,0.2511,-6.4087,-1.8921,-9.8267
573047,1.0221,0.0374,0.2968,-1.5259,2.9297,-19.165
573067,1.1821,0.0624,0.3131,1.0986,10.437,-23.7427
573088,1.0669,0.0027,0.304,1.4038,9.2163,-21.1182
573108,0.9506,0.0001,0.4082,-2.7466,10.5591,-19.3481
573131,1.0542,0.0002,0.4446,0.061,12.8784,-12.5122
573152,1.0286,-0.0819,0.4493,2.9297,12.085,-4.8828
573172,0.9885,-0.1801,0.4561,-2.6245,17.5171,2.2583
573193,0.9712,-0.1683,0.4178,-5.127,17.0288,2.3193
573213,1.0151,-0.1364,0.4172,-0.7935,11.6577,2.0752
573233,1.0325,-0.1266,0.3739,1.4038,7.8125,3.9062
573253,0.9938,-0.1395,0.3387,2.7466,0.7324,7.019
573277,0.9724,-0.1324,0.3411,1.709,-4.1504,7.019
573297,0.931,-0.1185,0.3029,-1.0376,-9.3994,5.9204
573321,0.8452,-0.1244,0.2617,-5.6152,-13.6719,6.3477
573341,0.79,-0.1183,0.252,-10.9253,-8.4839,9.5825
573361,0.7844,-0.1118,0.2325,-12.5122,-5.9204,8.2397
573381,0.7993,-0.0841,0.2264,-14.5264,-8.728,4.5776
573401,0.7822,-0.0624,0.2297,-13.3057,-15.3809,1.2207
573421,0.7634,-0.0396,0.2272,-13.9771,-14.7095,0.1221
573441,0.745,-0.0319,0.2159,-16.0522,-12.085,-0.7935
573461,0.7434,-0.0432,0.2333,-17.2729,-15.2588,-1.4038
573481,0.7584,-0.0668,0.2343,-19.7144,-13.0005,1.4038
573503,0.7419,-0.0875,0.2494,-22.644,-8.606,0.9766
573523,0.7891,-0.0908,0.2634,-25.6958,-3.7842,-0.1831
573543,0.8385,-0.0669,0.2505,-24.7192,-0.1831,-0.7324
573563,0.8525,-0.0408,0.2823,-22.3999,4.0894,-0.9766
573583,0.9293,-0.0197,0.2723,-21.6675,8.9722,0.3052
573603,0.9972,-0.0345,0.2783,-22.8882,10.2539,0.7324
573627,1.067,-0.0311,0.2512,-25.7568,11.1084,3.8452
573647,1.0576,-0.0371,0.2667,-29.1748,10.6812,5.4932
573667,1.2838,-0.0345,0.3506,-30.1514,13.3667,4.7607
573687,1.3843,0.0261,0.2991,-24.5972,10.498,5.127
573707,1.1592,0.0966,0.4703,-18.3105,-0.7935,2.1973
573730,1.1381,0.0868,0.4706,-22.2168,11.9019,6.3477
573750,1.0262,0.0956,0.4805,-23.7427,8.3008,5.9814
573773,0.8884,0.109,0.4268,-26.2451,12.5122,3.3569
573793,0.9089,0.0872,0.4388,-38.0249,16.6626,-4.2114
573813,0.9771,0.0874,0.3783,-38.269,13.0615,-11.5356
573833,0.9335,0.1116,0.3466,-36.6211,7.9346,-19.043
573853,0.9126,0.153,0.3472,-32.8369,6.1035,-23.3765
573873,0.9371,0.1669,0.2738,-30.4565,9.6436,-24.1089
573893,0.9487,0.1772,0.2527,-29.6631,9.0942,-23.1934
573916,0.9069,0.1703,0.225,-27.8931,2.5024,-20.752
573937,0.8497,0.1458,0.2091,-26.123,-5.4932,-20.0806
573957,0.7692,0.1433,0.1899,-23.5596,-2.1362,-16.8457
573977,0.7415,0.1276,0.1859,-18.9209,-1.8311,-15.564
573997,0.7224,0.1057,0.1777,-11.5356,-8.667,-16.6626
574017,0.6836,0.0725,0.1794,-8.1177,-11.2305,-15.1978
574037,0.6965,0.0895,0.1779,-7.2632,-11.5356,-12.146
574078,0.7565,0.0778,0.2019,-6.0425,-9.7656,-9.0942
574098,0.7827,0.0809,0.1996,-5.0659,-8.3008,-6.0425
574119,0.8776,0.0852,0.2238,-3.2959,-6.6528,-4.6387
574139,0.9359,0.0922,0.226,-0.4883,-4.6387,-5.249
574159,1.0382,0.1018,0.2223,0,-2.0142,-5.188
574219,1.1506,0.0549,0.2426,5.3101,-5.3101,-8.4839
574239,1.1016,0.0585,0.3057,8.1787,-11.7188,-12.3291
574259,1.2153,0.037,0.3439,6.5308,-5.7373,-10.3149
574280,1.0048,-0.0355,0.4752,6.8359,-2.6855,-7.9346
574300,1.0608,-0.0609,0.4552,6.8359,14.0381,-4.9438
574320,1.0902,-0.1294,0.4698,5.3101,18.5547,-1.8921
574340,1.0193,-0.1967,0.4506,-3.8452,20.0195,0.3662
574360,0.9598,-0.2009,0.4066,-6.5918,23.5596,0.2441
574380,0.974,-0.1479,0.4368,-1.6479,13.4277,-1.2817
574401,1.0294,-0.1155,0.396,2.0752,5.7983,0.2441
574422,0.9734,-0.1084,0.3698,4.5776,-2.5635,4.2114
574442,0.9172,-0.084,0.3623,2.8076,-4.4556,8.4839
574462,0.9553,-0.0786,0.3156,0.2441,-0.7324,7.6904
574482,0.8823,-0.0846,0.2948,-3.418,0.8545,9.7656
574502,0.8164,-0.08,0.2379,-7.9956,7.7515,9.0942
574523,0.8407,-0.0823,0.2119,-8.606,-4.1504,7.0801
574543,0.7914,-0.0865,0.1947,-7.7515,-10.498,8.3008
574563,0.7776,-0.0764,0.2053,-10.9863,-9.3994,9.0332
574583,0.803,-0.0609,0.1772,-15.564,-9.2773,4.0894
574603,0.7765,-0.038,0.1809,-15.1367,-17.2119,2.9297
574623,0.7479,-0.0459,0.1975,-17.5781,-15.3809,-0.6104
574643,0.8159,-0.0325,0.2035,-20.9351,-10.8643,-2.3193
574665,0.7887,-0.0355,0.1982,-15.3809,-19.165,-3.2349
574685,0.7937,-0.0347,0.2441,-16.7236,-15.5029,-2.8076
574707,0.8354,-0.0189,0.2201,-17.2729,-10.8643,-1.5259
574727,0.8771,-0.0129,0.2367,-17.334,-6.3477,-0.2441
574747,0.912,-0.0385,0.2557,-20.9351,3.418,-1.77
574770,1.0183,-0.0468,0.261,-23.7427,8.1787,-1.4038
574790,1.0535,-0.045,0.2623,-25.5127,5.9204,1.0986
574810,1.0081,-0.0488,0.2568,-26.4893,3.6011,2.6855
574830,1.0408,-0.0746,0.3334,-28.5645,6.958,2.5024
574850,1.2329,-0.0502,0.3256,-27.2827,10.9863,0.7324
574870,1.1425,0.0347,0.4741,-22.0337,-1.0376,1.0376
574890,1.1667,0.0732,0.4882,-23.4375,2.8687,2.5024
574910,1.1293,0.1124,0.5193,-20.9351,5.127,3.1738
574930,1.0337,0.1572,0.5413,-17.334,3.54,4.5776
574950,0.9823,0.1455,0.4609,-23.7427,6.5308,4.5166
574970,0.9722,0.0775,0.4635,-32.8979,7.7515,3.479
574990,0.9692,0.0427,0.4056,-35.5225,3.418,-1.2817
575010,0.8944,0.0697,0.3857,-36.438,0.6104,-13.0005
575031,0.9119,0.0992,0.3575,-35.0342,4.5166,-15.8691
575051,0.9164,0.1135,0.2876,-31.6162,-0.4272,-17.4561
575072,0.8409,0.1259,0.2847,-30.0903,-1.5869,-17.7002
575093,0.7968,0.1449,0.2593,-30.8838,2.1362,-14.8315
575113,0.7883,0.1481,0.2285,-28.3203,8.8501,-13.2446
575133,0.7964,0.1561,0.2123,-24.353,3.6621,-14.0991
575153,0.7667,0.1327,0.2029,-19.5923,-4.3335,-15.9302
575173,0.7177,0.0934,0.1921,-16.1133,-10.0098,-15.7471
575195,0.6823,0.0802,0.1964,-16.4185,-7.9956,-14.3433
575215,0.729,0.0752,0.1903,-16.4795,-4.4556,-12.6953
575276,0.8477,0.1016,0.226,-13.0005,-2.6245,-10.437
575297,0.9027,0.0948,0.2406,-11.1694,-1.1597,-10.2539
575320,0.941,0.1233,0.2581,-6.5918,-0.5493,-9.8267
575340,0.9906,0.1392,0.2532,-1.77,-3.2349,-9.8267
575360,1.0699,0.14,0.2428,0.6104,2.8687,-7.4463
575380,1.0747,0.0936,0.2159,1.0986,1.1597,-9.3384
575400,1.12,0.0961,0.2882,4.2725,5.8594,-13.4888
575420,1.3435,0.0924,0.2494,7.5684,6.6528,-13.3057
575440,1.2632,-0.0245,0.2904,5.5542,-5.249,-14.1602
575462,1.0612,-0.0298,0.4867,6.5308,-1.9531,-14.8926
575483,1.0603,-0.0754,0.4554,11.7188,-0.8545,-12.3901
575503,0.9482,-0.172,0.5283,6.7139,-1.6479,-6.7749
575525,0.8949,-0.1857,0.5209,5.0659,2.0752,-2.7466
575545,0.9705,-0.1555,0.4994,11.2305,1.4648,1.709
575565,0.9999,-0.1433,0.4744,15.564,0.1221,4.6997
575585,0.9773,-0.1292,0.4346,18.6768,1.4648,8.1787
575625,0.9387,-0.1206,0.3287,11.3525,5.249,6.0425
575646,0.8695,-0.1138,0.2869,7.019,3.0518,5.9814
575666,0.8065,-0.1198,0.2496,2.8687,3.3569,8.4229
575686,0.7822,-0.1249,0.2189,0.6714,0.3662,15.1367
575706,0.7466,-0.1144,0.202,2.1362,-10.9253,14.3433
575726,0.7283,-0.113,0.212,0.4883,-11.5356,13.6108
575746,0.7196,-0.0725,0.1875,-0.9155,-16.1133,15.7471
575766,0.6921,-0.0631,0.2078,-6.2256,-12.146,8.4229
575786,0.7164,-0.0623,0.2041,-7.2632,-10.3149,7.4463
575807,0.7285,-0.0658,0.2124,-6.8359,-12.6343,4.6997
575827,0.7321,-0.0935,0.1925,-6.1035,-11.5356,1.709
575848,0.837,-0.1001,0.2183,-10.8032,-6.4697,0.7324
575908,0.988,-0.1024,0.2794,-10.6812,-1.4038,1.77
575964,1.0824,-0.0703,0.2413,-22.0947,3.1128,6.897
575984,1.111,-0.0797,0.3364,-26.1841,2.8687,10.437
576004,1.3442,-0.0317,0.304,-26.1841,8.5449,10.1318
576024,1.2255,0.0266,0.3766,-19.5312,1.9531,8.1787
576045,1.1016,0.0559,0.5201,-20.3247,-1.4038,7.2021
576065,1.1326,0.0828,0.5098,-24.0479,7.5073,9.1553
576085,1.037,0.1407,0.5607,-25.7568,4.0894,5.3101
576105,0.9402,0.1871,0.5017,-26.3062,4.6997,3.0518
576125,0.9052,0.1284,0.5238,-34.1797,9.7656,0.4883
576145,0.9644,0.0951,0.4326,-42.3584,10.8032,-4.0894
576165,0.9185,0.1147,0.3835,-40.2832,8.0566,-16.6016
576186,0.917,0.1364,0.3696,-37.4146,9.7046,-23.3765
576206,0.9332,0.1382,0.2903,-34.3628,6.2866,-26.4282
576226,0.8257,0.1539,0.2639,-29.3579,3.9062,-25.3906
576246,0.7781,0.1407,0.2666,-28.4424,-0.7935,-24.9634
576266,0.7454,0.1447,0.2385,-29.1748,1.3428,-23.9258
576286,0.7137,0.1326,0.2179,-30.8838,12.3901,-21.3013
576306,0.7522,0.1318,0.1781,-26.5503,9.1553,-17.9443
576326,0.712,0.0951,0.1779,-19.6533,-3.0518,-17.8833
576346,0.7078,0.0806,0.1737,-14.4653,-5.9204,-14.4043
576366,0.7404,0.0741,0.1882,-13.7329,-5.4321,-12.0239
576386,0.7886,0.1223,0.1669,-12.6343,-4.4556,-11.8408
576406,0.7852,0.119,0.1949,-11.3525,-2.0142,-12.3291
576426,0.7819,0.1256,0.2047,-6.5308,-5.9814,-8.5449
576447,0.8624,0.1323,0.2148,-5.3711,-0.8545,-8.1177
576468,0.931,0.1196,0.202,-6.0425,-0.6714,-5.3101
576488,0.9835,0.1085,0.2089,-6.958,0.8545,-4.3945
576570,1.2485,0.0684,0.2977,-0.9766,0.6104,-13.3057
576612,1.1176,-0.0303,0.4458,-11.5967,-0.3052,-14.5874
576656,1.0165,-0.083,0.5226,-3.418,2.1362,-5.127
576676,0.9202,-0.1135,0.5312,-2.8076,6.958,-2.4414
576696,0.9574,-0.0901,0.5067,10.1929,5.0659,1.0986
576716,0.9427,-0.059,0.4716,15.2588,8.728,1.2207
576736,0.927,-0.0402,0.4252,20.0806,8.3618,6.4087
576756,0.8889,-0.0541,0.3713,21.1182,8.4229,10.498
576776,0.9199,-0.064,0.3085,20.813,9.5215,13.0005
576800,0.8765,-0.0848,0.2688,19.7144,2.6855,14.7095
576820,0.8468,-0.0874,0.2539,18.0054,-2.6245,15.2588
576840,0.8094,-0.1127,0.2319,14.4653,-5.3101,17.8833
576860,0.7933,-0.1276,0.2379,11.7798,-5.8594,18.7378
576880,0.7679,-0.1433,0.22,7.6294,-9.7656,15.1367
576900,0.7332,-0.1396,0.1918,6.7749,-12.085,13.6719
576943,0.7452,-0.092,0.1886,-0.9155,-13.1836,6.4087
576963,0.7295,-0.082,0.2003,-2.3804,-12.146,6.4087
576986,0.7598,-0.0804,0.2191,-4.2114,-17.2119,6.3477
577006,0.7737,-0.1122,0.2249,-6.0425,-16.2964,5.7983
577026,0.8263,-0.0905,0.2317,-8.3618,-13.5498,5.188
577046,0.8591,-0.0751,0.2726,-8.0566,-14.1602,5.249
577107,0.9968,-0.0912,0.2802,-17.2119,12.5122,8.667
577151,1.1639,-0.0469,0.3989,-25.2075,20.9961,11.5356
577191,1.269,0.1041,0.4846,-8.5449,2.6855,9.3994
577212,1.1697,0.1147,0.5,-10.0708,-3.9062,9.1553
577232,1.0148,0.163,0.5048,-9.0942,-0.7935,5.8594
577252,0.9689,0.1648,0.4601,-12.6953,9.8877,4.7607
577272,0.9302,0.1333,0.4712,-19.3481,16.2354,1.8921
577292,0.964,0.0826,0.4164,-23.7427,12.5732,-3.9673
577312,0.9215,0.0834,0.3979,-21.4844,11.8408,-12.207
577332,0.9342,0.0985,0.4359,-15.4419,11.9629,-18.9819
577354,0.9513,0.1309,0.3912,-11.4136,7.2632,-18.3105
577375,0.8933,0.1461,0.3866,-7.0801,0.7324,-15.686
577395,0.866,0.1389,0.3722,-4.0283,-6.5918,-13.0005
577415,0.8521,0.1394,0.3612,-1.1597,-4.0894,-8.7891
577437,0.8384,0.1449,0.3472,3.479,0.5493,-2.8687
577457,0.8396,0.1322,0.3508,11.8408,-0.061,2.5024
577477,0.7721,0.1006,0.3433,18.0664,-1.8311,4.8828
577497,0.7618,0.092,0.3418,23.9258,-3.1738,9.4604
577517,0.7482,0.0865,0.3621,26.6724,-1.1597,11.2305
577537,0.7516,0.0822,0.3142,32.3486,1.6479,10.6201
577559,0.7802,0.0806,0.3373,34.5459,5.8594,12.8174
577579,0.809,0.0776,0.3284,37.5977,5.7983,13.3057
577599,0.808,0.0901,0.326,44.1284,5.4932,13.4277
577639,0.8539,0.131,0.2887,53.9551,12.8784,14.9536
577659,0.8384,0.137,0.254,57.9224,14.0991,14.8926
577679,0.8474,0.1152,0.3308,63.5376,21.1792,15.0757
577699,0.939,0.1172,0.2969,69.7632,21.6064,17.7002
577719,0.9994,0.0475,0.2815,75.3174,17.395,18.5547
577739,1.0492,0.0046,0.2605,78.6743,16.8457,19.4702
577759,1.066,-0.0172,0.2825,79.6509,11.1694,20.6909
577779,1.0369,-0.0482,0.298,80.5664,8.2397,20.9351
577799,1.0034,-0.0751,0.3304,82.7637,8.9722,21.0571
577819,1.0336,-0.083,0.3385,87.0972,6.8359,22.522
577839,1.1055,-0.0935,0.3677,91.7358,2.5635,25.0244
577859,1.1394,-0.1108,0.3617,94.6045,-3.2349,28.5645
577879,1.0833,-0.1016,0.3782,94.7876,-5.7983,29.2969
577899,1.0475,-0.0941,0.3644,94.4214,-4.3945,28.7476
577919,1.007,-0.0764,0.3427,95.0928,-2.6855,28.9917
577939,0.9915,-0.0654,0.3196,99.0601,-7.1411,31.4941
577959,0.9189,-0.0573,0.3077,101.6235,-12.9395,34.5459
577979,0.8379,-0.0562,0.3069,104.0039,-12.6953,36.8652
577999,0.8254,-0.0803,0.2968,105.5298,-5.188,39.0015
578019,0.7983,-0.1167,0.2872,104.7363,0.4272,39.917
578039,0.8007,-0.1328,0.283,104.8584,8.606,39.6118
578059,0.8308,-0.1405,0.2726,104.7974,13.3057,39.917
578079,0.9019,-0.1481,0.2688,104.9805,14.0381,40.3442
578099,0.9427,-0.1667,0.2758,105.4077,11.2305,40.9546
578119,0.9532,-0.1694,0.2643,107.0557,5.188,40.4053
578159,0.9581,-0.1786,0.2708,111.5723,7.2632,36.1938
578182,0.9784,-0.1736,0.2584,112.2437,8.0566,34.8511
578202,0.9178,-0.183,0.228,114.2578,5.0049,33.5693
578223,0.9078,-0.2096,0.2286,111.9995,7.3242,33.2031
578243,0.9132,-0.2291,0.2323,111.9995,8.9722,33.6304
578266,0.917,-0.2335,0.2258,113.6475,7.3853,34.6069
578286,0.9432,-0.2152,0.2396,114.624,6.6528,34.1187
578306,0.9314,-0.2013,0.2004,115.3564,3.2959,35.5225
578326,0.8743,-0.2159,0.2225,112.3047,2.8687,35.9497
578346,0.8777,-0.2167,0.2068,106.6284,6.4087,35.9497
578366,0.9167,-0.1965,0.233,104.7974,7.6294,35.1562
578386,1.0475,-0.105,0.2891,107.7881,4.4556,35.0952
578406,1.1606,-0.0264,0.2887,116.5771,-4.7607,36.2549
578426,1.1299,0.0454,0.2852,123.1079,-11.4746,35.4614
578446,0.9596,0.1212,0.3173,118.7134,-13.916,33.4473
578486,0.8771,0.0837,0.2401,105.5298,15.7471,39.6118
578506,0.901,0.1111,0.2323,101.3794,18.8599,39.3677
578526,0.9996,0.1189,0.2151,98.7549,16.9678,40.2832
578546,1.0535,0.0896,0.2542,94.0552,11.5967,35.2783
578569,1.0582,0.0995,0.2404,93.75,-2.1362,30.7007
578589,0.9645,0.1351,0.2509,94.1772,-8.3008,28.1372
578609,0.9258,0.1638,0.2229,90.5151,1.1597,28.9917
578630,0.9668,0.1375,0.1931,86.731,5.3101,28.9307
578654,0.9268,0.1069,0.1796,85.022,-0.4883,28.7476
578674,0.9005,0.0974,0.1636,85.6323,-3.0518,26.9775
578740,0.9226,0.053,0.1481,80.2002,1.2817,23.7427
578927,0.9607,-0.0621,0.2184,58.1665,-3.418,13.0615
578947,0.9661,-0.046,0.2183,51.6968,-1.4648,9.3384
578967,0.9485,0.001,0.2471,49.3774,-2.9907,7.0801
578987,0.9701,0.0215,0.2482,49.6216,-5.0049,6.5308
579007,0.9839,0.043,0.2461,48.645,-3.6011,7.5073
579027,1.0007,0.0425,0.276,44.7388,0.6714,7.0801
579047,1.0602,0.0653,0.3143,43.5181,5.7983,5.6152
579067,1.1514,0.0641,0.3162,43.335,10.1318,3.418
579087,1.0453,0.0083,0.3751,42.2974,7.5684,3.1738
579107,1.0402,-0.0159,0.5046,39.978,19.4702,3.6621
579127,1.2288,-0.0607,0.4592,39.7949,24.7803,8.1177
579147,1.1117,-0.2046,0.4462,36.2549,22.0337,8.4839
579168,0.9833,-0.2239,0.4939,36.377,18.1885,5.3711
579188,0.9923,-0.1531,0.4473,43.8843,10.6201,2.1362
579208,0.9268,-0.1064,0.4436,50.9033,-2.5635,4.6997
579228,0.8617,-0.0929,0.4135,54.7485,-4.8828,7.6904
579270,0.8317,-0.1221,0.338,50.7812,1.709,19.104
579290,0.8191,-0.1307,0.2722,47.5464,6.7139,21.3623
579310,0.7919,-0.1532,0.2373,42.2974,7.6294,21.8506
579330,0.8112,-0.1627,0.2241,37.5977,4.5776,21.3013
579352,0.8577,-0.199,0.2174,33.1421,-2.2583,17.9443
579372,0.8138,-0.1953,0.2085,28.8696,-13.4277,16.0522
579414,0.7542,-0.1777,0.2156,22.2168,-20.5078,14.6484
579436,0.7584,-0.1681,0.219,20.3247,-20.5078,12.2681
579456,0.7878,-0.1719,0.2235,13.6108,-13.7329,11.1084
579476,0.774,-0.1635,0.2405,8.7891,-7.0801,10.1318
579496,0.785,-0.1664,0.2439,3.54,-4.9438,8.2397
579516,0.8398,-0.1655,0.264,1.4038,-1.0376,6.958
579536,0.9032,-0.1543,0.2842,1.2817,0.6104,6.6528
579556,0.9603,-0.1615,0.3029,-0.5493,0.1221,6.6528
579576,1.0559,-0.1429,0.2965,-2.9907,3.3569,7.5073
579621,1.1267,-0.058,0.2997,-3.6011,0,14.4653
579661,1.3267,0.0045,0.3311,-0.3662,-1.1597,19.165
579746,0.8838,0.1635,0.5803,7.7515,9.3384,14.0381
579775,0.8669,0.1022,0.5126,-1.1597,16.7236,11.2915
579796,0.8967,0.0566,0.4554,-7.9956,14.0991,2.9907
579816,0.8661,0.043,0.4117,-8.667,10.6201,-2.5635
579836,0.859,0.0765,0.3772,-5.0659,4.6387,-6.3477
579856,0.8706,0.0853,0.3451,-2.1973,5.4932,-8.1787
579876,0.8438,0.0961,0.3204,-1.3428,6.2256,-8.9722
579900,0.8391,0.1119,0.2961,-1.1597,5.5542,-8.9111
579920,0.8324,0.1012,0.2794,0.8545,2.9907,-7.8735
579940,0.813,0.1074,0.2563,4.2114,2.9297,-4.9438
579960,0.776,0.0928,0.2487,7.019,-1.9531,-4.3335
579980,0.7714,0.0851,0.222,11.4746,-9.8267,-5.0659
580001,0.6859,0.0505,0.2123,12.085,-6.7139,-5.9814
580021,0.7014,0.0464,0.2059,14.1602,-11.2305,-2.0142
580041,0.7522,0.0454,0.2305,13.1226,-8.2397,-2.6855
580061,0.7971,0.0706,0.2275,12.8174,-3.9673,-4.6997
580081,0.8158,0.0699,0.251,12.146,-1.9531,-2.9907
580101,0.8751,0.0542,0.2703,11.2305,2.6245,-2.2583
580121,0.9041,0.0837,0.2875,11.6577,1.8311,-4.0283
580181,1.0732,0.1024,0.2852,14.0381,-1.4648,-1.709
580241,1.1621,0.0021,0.4023,16.3574,3.9062,-3.6011
580261,1.1276,-0.0455,0.535,17.8223,12.9395,-4.3335
580281,1.2343,-0.1001,0.5056,16.3574,17.4561,-2.3804
580301,1.0984,-0.1927,0.4714,14.4653,13.6719,-1.3428
580321,0.9386,-0.244,0.494,9.8877,16.2354,-2.8687
580343,0.9578,-0.1825,0.4468,11.3525,22.2168,-3.6011
580405,0.8832,-0.1321,0.3579,22.2778,6.4697,6.7139
580425,0.9158,-0.1033,0.2931,22.3389,6.897,10.1318
580445,0.8556,-0.0959,0.2692,21.2402,5.249,11.5356
580465,0.8359,-0.1035,0.2535,16.7847,4.0283,11.7798
580485,0.809,-0.1226,0.2059,13.9771,-2.1362,14.9536
580505,0.8024,-0.1378,0.1985,11.1084,-3.0518,14.3433
580589,0.7164,-0.1216,0.2075,4.8828,-18.4326,5.7373
580736,1.095,-0.1039,0.2554,-10.437,-4.2114,5.5542
580756,1.0935,-0.0828,0.2655,-15.4419,-10.0098,8.4229
580776,1.0295,-0.0577,0.2659,-17.5781,-10.5591,9.1553
580796,1.0531,-0.0778,0.3301,-20.6299,-5.249,10.376
580858,1.1161,0.0874,0.5437,-14.7095,0.5493,8.9722
580934,0.8739,0.1479,0.5171,-13.6719,11.1694,5.9204
580954,0.9031,0.0856,0.443,-20.6909,13.855,5.3711
580974,0.8634,0.0603,0.4369,-20.9961,13.4888,-0.9766
580994,0.8624,0.1046,0.3932,-13.6108,9.9487,-13.1226
581014,0.9092,0.1241,0.3616,-9.9487,10.5591,-15.9912
581034,0.9125,0.1292,0.298,-6.897,7.9956,-14.1602
581054,0.8236,0.1216,0.281,-7.9346,7.019,-10.9863
581074,0.79,0.1082,0.2561,-6.7139,5.4932,-9.0332
581096,0.8002,0.1246,0.2146,-6.2866,13.0005,-4.2725
581117,0.8204,0.1222,0.2112,-1.4038,7.5073,-2.8076
581137,0.7786,0.0972,0.1798,4.0894,2.0142,-4.8828
581157,0.7572,0.074,0.17,8.7891,-3.1128,-7.0801
581177,0.7567,0.0757,0.1655,9.1553,-8.2397,-4.2725
581197,0.7806,0.0825,0.1799,8.1787,-7.6904,-4.1504
581217,0.7935,0.0719,0.1945,7.5073,-5.4321,-2.8687
581237,0.8093,0.0646,0.205,7.8735,-3.7231,-3.8452
581257,0.8185,0.0555,0.2157,7.7515,-2.1973,-4.6997
581277,0.8655,0.0403,0.2006,5.5542,2.2583,-3.6621
581338,1.0598,0.0333,0.2235,-2.8687,4.0894,-5.5542
581358,1.1027,0.047,0.2147,-1.709,1.4648,-8.606
581378,1.1293,0.0798,0.2477,-2.6855,2.3804,-10.437
581400,1.285,0.0911,0.3148,15.564,2.1973,-9.5825
581420,1.2328,0.0225,0.2812,3.9062,-3.7231,-10.6201
581440,1.1874,-0.0024,0.3977,2.6245,-2.2583,-12.5122
581460,1.1642,-0.0494,0.4602,4.4556,-3.8452,-8.1177
581500,0.9365,-0.1317,0.5414,8.728,-0.7935,-2.3193
581520,1.0002,-0.0955,0.4803,16.2354,1.3428,0.4883
581540,0.9791,-0.0668,0.5111,23.9868,-1.4038,2.9297
581560,0.9089,-0.0448,0.4358,29.4189,-3.1128,8.3618
581580,0.8551,-0.0609,0.4075,27.4658,-1.4648,12.3901
581600,0.8724,-0.0826,0.3793,23.0103,-0.7935,14.4043
581663,0.7783,-0.1077,0.2803,17.0898,-6.0425,13.6719
581683,0.7592,-0.1158,0.2722,12.8784,-9.3994,11.7188
581703,0.7551,-0.1544,0.2589,9.3384,-10.8643,9.4604
581723,0.7546,-0.1405,0.2378,5.7373,-8.8501,9.9487
581743,0.7794,-0.1348,0.2303,1.5869,-10.498,6.5918
581763,0.765,-0.1144,0.2185,-2.6245,-11.4136,4.6387
581785,0.7614,-0.1039,0.2056,-4.6387,-14.1602,2.3193
581809,0.7539,-0.1212,0.2216,-8.4229,-13.4277,1.6479
581829,0.7826,-0.1376,0.2252,-13.1226,-8.7891,0.1831
581849,0.8098,-0.1421,0.2551,-13.7329,-10.9253,-1.1597
581870,0.8396,-0.1113,0.2677,-16.6626,-8.4229,-1.709
581890,0.8726,-0.0801,0.2888,-17.4561,-3.2959,-0.9766
581971,1.0952,0.0062,0.3267,-15.8691,-3.7842,8.5449
581991,1.2981,0.0242,0.3818,-13.0005,-2.3804,12.0239
582011,1.354,0.0747,0.3651,-5.0659,-6.3477,15.9912
582031,1.1931,0.1299,0.5731,-4.2725,-9.1553,15.7471
582053,1.1664,0.1533,0.6384,-2.1362,-3.7842,18.1885
582073,0.9926,0.1769,0.656,0.4272,-4.4556,17.0288
582093,0.9258,0.1787,0.671,1.0986,-1.2207,14.5264
582116,0.8646,0.1224,0.5811,-8.5449,9.0942,8.4229
582136,0.7902,0.0497,0.5103,-18.9209,17.8833,-0.061
582156,0.7958,0.0322,0.4608,-19.7754,15.5029,-12.0239
582176,0.8041,0.0725,0.4249,-13.4277,14.5874,-18.4326
582196,0.8746,0.1129,0.3496,-9.3994,12.8784,-20.752
582216,0.8743,0.1228,0.3263,-9.0942,12.9395,-18.4937
582236,0.8092,0.113,0.2985,-10.437,11.0474,-14.8926
582298,0.7728,0.1407,0.2521,-4.6997,0.4272,-10.0708
582318,0.7574,0.1334,0.2476,-1.0986,-0.6714,-7.8735
582338,0.7137,0.0975,0.2261,3.6011,-5.0049,-4.8218
582358,0.6783,0.0848,0.2126,6.5308,-1.0376,-4.1504
582378,0.7452,0.0846,0.2141,7.8735,2.5024,-3.9062
582398,0.7517,0.0842,0.2103,9.6436,2.1362,-2.9907
582419,0.782,0.0803,0.2258,10.6201,3.479,-2.5635
582439,0.8444,0.0793,0.2609,12.9395,2.6245,-0.2441
582459,0.8853,0.0764,0.2485,14.0381,3.1128,1.8311
582479,0.9166,0.0692,0.2605,14.4653,6.1035,2.4414
582499,0.993,0.0597,0.2881,14.7705,9.0942,2.6245
582523,1.1143,0.0438,0.2434,15.1978,7.2632,3.0518
582545,1.0426,0.0354,0.2683,18.7378,-1.4648,-2.1362
582565,1.1025,0.0515,0.3511,22.7661,1.5259,-5.6152
582585,1.2616,0.0576,0.2992,21.7896,9.5825,-2.8687
582605,1.1104,-0.0072,0.5229,19.8364,10.9863,-3.2349
582625,1.2391,-0.0438,0.4772,20.6909,12.5122,1.6479
582648,1.1874,-0.1346,0.4703,19.6533,10.6201,5.7373
582670,1.0322,-0.1816,0.4835,20.752,13.2446,9.4604
582694,1.0026,-0.1606,0.4324,25.1465,18.1274,11.1694
582714,0.9487,-0.1418,0.3931,33.7524,13.9771,12.8174
582734,0.9091,-0.135,0.3522,35.1562,11.5356,15.3198
582754,0.9161,-0.1404,0.313,35.7056,0.6104,16.9067
582774,0.8997,-0.1155,0.2762,35.8276,-3.479,19.043
582794,0.8958,-0.0959,0.2377,36.9263,-4.4556,20.3247
582814,0.7858,-0.0948,0.2427,37.1094,-8.4839,20.3857
582834,0.7566,-0.1063,0.2197,37.8418,-7.2632,20.9351
582854,0.7662,-0.1088,0.2308,40.4663,-8.1177,20.813
582874,0.7766,-0.1306,0.2216,40.5884,-9.1553,20.0806
582894,0.7867,-0.1438,0.2284,38.5742,-8.5449,17.6392
582915,0.796,-0.1473,0.236,38.7573,-12.4512,18.0664
582935,0.7838,-0.1526,0.2488,36.8652,-10.6812,19.043
582955,0.7958,-0.168,0.233,31.1279,-7.4463,19.9585
582999,0.8519,-0.1968,0.2571,23.0103,-8.1787,18.8599
583019,0.8398,-0.1969,0.2408,19.4702,-9.4604,16.9678
583039,0.8484,-0.1835,0.2561,16.1743,-8.0566,14.6484
583059,0.8929,-0.1543,0.2628,15.5029,-6.6528,13.916
583079,0.9174,-0.1257,0.2653,14.2822,-2.7466,13.2446
583102,1.0211,-0.0885,0.2878,12.6953,1.0986,13.7939
583123,1.0397,-0.0598,0.2666,11.0474,-0.7935,15.8691
583143,1.0282,-0.038,0.2454,7.9956,0.5493,18.0054
583163,1.051,-0.0403,0.2758,5.6763,7.5073,20.4468
583183,1.2792,-0.0311,0.2462,5.7373,16.4185,22.522
583203,1.1851,0.0613,0.3937,18.5547,5.6152,17.5171
583244,1.1769,0.1237,0.5101,26.6113,7.8125,16.6016
583304,0.864,0.1052,0.4353,23.6816,15.2588,14.4043
583347,0.8593,0.0363,0.3717,17.8833,4.8218,6.1035
583367,0.8087,0.0645,0.3492,25.3296,-1.8311,0.3662
583388,0.8234,0.1022,0.348,30.0293,-0.7324,-2.8687
583408,0.869,0.118,0.3145,32.5928,7.019,-2.6245
583428,0.8563,0.1213,0.3063,32.6538,9.7046,-2.1362
583510,0.8586,0.092,0.2032,40.7715,0.6714,10.5591
583530,0.8643,0.0531,0.1697,44.0063,-3.2959,12.085
583572,0.7668,0.0204,0.1648,48.2788,-12.5732,14.5874
583612,0.7946,-0.0267,0.1979,44.3115,-9.5215,11.1694
583635,0.835,-0.0281,0.1891,41.3208,-5.3101,12.085
583675,0.9386,0.0095,0.2437,39.978,3.3569,11.1694
583696,0.9601,0.0211,0.2445,37.9028,3.7231,10.376
583716,0.984,0.019,0.2498,36.0718,-1.5259,10.0098
583736,1.0488,0.0122,0.2605,34.79,-6.7749,6.1646
583758,1.0189,0.0125,0.2488,31.6162,-6.0425,4.9438
583778,0.9783,0.0378,0.264,33.02,-1.5869,0.4883
583818,1.1827,0.0946,0.2548,39.7949,11.1084,1.0986
583838,1.079,0.0527,0.4642,39.0015,10.9863,2.8687
583858,1.2913,-0.0375,0.4478,38.8794,10.6201,8.2397
583878,1.1975,-0.1469,0.4681,38.147,1.8311,11.3525
583902,0.9998,-0.2589,0.5315,36.499,7.5073,10.8643
583922,1.0482,-0.2295,0.4716,39.0015,11.9019,8.8501
583942,1.0114,-0.145,0.4386,44.5557,6.8359,6.2256
583965,0.9188,-0.136,0.3879,45.7764,2.3193,9.0942
583986,0.8512,-0.1262,0.3458,46.0205,9.0942,13.6108
584006,0.9047,-0.1194,0.2891,48.0957,9.7046,14.7705
584026,0.8103,-0.0885,0.2303,49.5605,6.4087,15.9302
584046,0.7334,-0.104,0.2113,45.166,7.5073,17.1509
584066,0.7316,-0.1295,0.1808,43.396,8.3618,18.0054
584086,0.7683,-0.163,0.1602,37.7808,7.3242,21.2402
584106,0.7927,-0.1989,0.1632,32.1655,3.6621,20.2637
584126,0.829,-0.2258,0.1621,25.8789,-8.4229,16.4795
584186,0.7615,-0.174,0.2045,18.0664,-24.4141,13.3057
584216,0.8397,-0.1775,0.2273,9.3994,-12.5122,12.6953
584236,0.8217,-0.1504,0.2465,8.9722,-9.0332,11.8408
584256,0.8469,-0.1396,0.2201,4.6997,-6.2866,12.2681
584276,0.8977,-0.1321,0.2412,4.0283,-3.2349,12.7563
584296,0.9755,-0.1216,0.2438,3.418,-2.3804,10.7422
584316,1.038,-0.1143,0.2577,3.2349,-3.3569,9.9487
584336,1.0856,-0.0601,0.3013,2.5635,-3.54,9.5215
584357,1.1022,-0.0074,0.2959,4.3335,-5.0049,10.376
584397,1.2313,-0.062,0.3807,-1.9531,2.9297,15.9912
584419,1.0714,0.0146,0.4877,-0.4272,7.0801,12.9395
584439,1.088,0.0366,0.4988,-0.1831,7.3853,10.9253
584459,1.0845,0.0618,0.5353,1.4038,13.0615,9.6436
584481,0.9833,0.1621,0.5913,7.4463,11.4746,7.7515
584501,0.9746,0.2172,0.5404,13.0615,8.728,7.8735
584524,0.8922,0.1923,0.536,8.728,9.0332,10.6201
584544,0.9005,0.0979,0.4515,3.2959,5.249,10.2539
584564,0.8564,0.0657,0.4198,3.6621,4.6387,1.1597
584584,0.8712,0.0675,0.3792,5.0049,6.958,-3.9062
584624,0.8485,0.0591,0.2914,4.5776,10.498,-8.9722
584665,0.8002,0.0891,0.2307,6.7139,7.6904,-6.6528
584685,0.8284,0.0974,0.2194,9.0332,7.6294,-3.9673
584705,0.8105,0.1138,0.1949,12.3901,-0.1831,-2.5024
584725,0.7814,0.0955,0.1919,16.2354,-2.1362,-1.77
584745,0.7452,0.0616,0.1757,16.2964,3.7231,-1.2817
584765,0.759,0.0466,0.1912,21.6064,-6.5308,-0.4272
584785,0.7375,0.046,0.1727,23.3154,-9.1553,-2.9907
584805,0.774,0.0511,0.193,20.752,-5.9204,-3.9062
584828,0.818,0.0482,0.2026,17.1509,-1.6479,-2.3193
584848,0.891,0.0291,0.2338,14.4653,2.1973,-2.5024
584908,1.0355,0.0725,0.2726,14.8926,-0.6104,-6.2256
584934,1.0743,0.0549,0.2476,17.5781,-1.2817,-8.728
584954,0.9996,0.0629,0.2826,18.9819,0.5493,-9.7046
584976,1.1426,0.0751,0.3455,16.7847,9.0942,-8.9111
584997,1.1428,-0.0132,0.3232,17.7002,10.0708,-9.4604
585017,1.0209,-0.0146,0.4725,15.0757,5.249,-8.4839
585038,1.2263,-0.0623,0.4377,16.2964,16.2964,-3.7231
585062,1.0198,-0.1869,0.4309,17.1509,11.0474,1.77
585083,0.9833,-0.2167,0.4532,16.0522,16.4795,3.3569
585103,1.0663,-0.1692,0.4082,21.8506,22.2168,5.3101
585123,1.0685,-0.1377,0.3749,30.6396,4.2725,6.7749
585143,0.9324,-0.1245,0.3572,31.9824,-0.7324,9.0332
585163,0.9181,-0.1519,0.3379,30.5176,5.3711,11.7798
585207,0.855,-0.1512,0.2401,28.6255,1.6479,15.686
585227,0.8005,-0.1338,0.2252,26.7944,-1.77,16.3574
585247,0.788,-0.1326,0.1847,21.7285,-2.2583,17.2119
585269,0.776,-0.1544,0.1743,12.4512,-6.3477,16.4795
585289,0.8008,-0.1522,0.1737,9.8877,-11.3525,14.2212
585312,0.79,-0.1326,0.1615,12.2681,-28.0151,8.5449
585332,0.725,-0.1189,0.1963,11.4746,-28.6255,7.8735
585352,0.7057,-0.1072,0.2097,11.4746,-24.4751,8.3008
585372,0.6943,-0.1025,0.2037,9.3994,-22.2168,7.5073
585392,0.7272,-0.1237,0.2015,2.8076,-4.8828,10.376
585414,0.7966,-0.1304,0.2219,-3.418,-0.5493,12.0239
585434,0.8708,-0.1306,0.2151,-3.7842,0.4272,11.6577
585454,0.9784,-0.1031,0.2345,-2.3193,0.8545,7.6294
585475,1.0709,-0.0747,0.2251,-0.9766,-0.6714,5.0049
585495,1.0938,-0.0758,0.2406,-5.7983,-1.709,6.8359
585515,1.1731,-0.0393,0.256,-7.3242,-3.418,10.0708
585537,1.1162,-0.0337,0.2676,-7.8735,-9.7046,12.146
585557,1.2451,-0.0383,0.3904,-9.7046,-7.6294,14.9536
585577,1.2327,-0.0085,0.3726,-4.0283,-7.1411,14.9536
585597,1.0701,0.0138,0.5255,-5.5542,-4.5166,11.9629
585617,1.0656,0.0485,0.5366,-4.2725,4.2725,8.9111
585637,0.979,0.1147,0.5564,-0.9155,6.6528,6.5308
585658,0.9427,0.2135,0.5057,1.9531,7.8735,6.0425
585678,0.8883,0.2097,0.5028,-4.5776,12.7563,9.0332
585698,0.9631,0.1362,0.4376,-7.6294,10.5591,8.667
585738,0.8706,0.0995,0.401,-7.6904,-0.9766,-5.0049
585758,0.9186,0.1072,0.3798,-5.3101,0.3662,-8.0566
585818,0.7662,0.1331,0.2644,4.0283,-4.5166,-12.6953
585865,0.744,0.1049,0.2054,9.4604,3.9673,-4.0283
585885,0.7397,0.1005,0.1879,12.5732,-0.1221,-2.3193
585925,0.7025,0.0808,0.1609,20.1416,-9.5215,-2.7466
585985,0.7583,0.0544,0.2358,18.4937,-8.9111,-1.4038
586005,0.8718,0.0392,0.2302,14.8315,-1.2207,-1.9531
586045,0.9988,0.0294,0.2653,8.1787,7.3242,-3.2959
586075,1.1244,0.0803,0.2422,8.4229,-0.8545,-9.0942
586095,1.136,0.0674,0.2281,8.9111,-4.2725,-9.8267
586135,1.3025,0.1,0.347,12.8784,-1.0986,-9.3994
586156,1.1448,0.0115,0.4701,13.3667,-8.3618,-7.8735
586176,1.0049,-0.0065,0.5592,13.1226,1.5869,-5.188
586196,1.2092,-0.0624,0.5472,13.2446,13.855,-0.9766
586216,1.0382,-0.1837,0.5134,10.498,7.0801,2.4414
586236,0.9354,-0.2356,0.5348,7.2021,16.7847,0.4272
586256,1.0308,-0.1718,0.4722,11.8408,17.7002,-1.0376
586277,1.0077,-0.1271,0.4481,17.8833,9.1553,-0.5493
586317,0.844,-0.0703,0.3846,24.1089,-4.8828,5.127
586341,0.8605,-0.0731,0.3256,23.4375,2.8687,8.7891
586361,0.8259,-0.0911,0.3033,21.1792,3.418,10.437
586381,0.777,-0.0942,0.2841,18.9819,0.2441,12.0239
586401,0.7505,-0.1321,0.2355,12.3901,3.9062,12.3291
586421,0.7837,-0.145,0.2355,9.9487,2.5024,12.8174
586443,0.8103,-0.1617,0.2166,5.4321,-2.8687,12.3901
586463,0.793,-0.1509,0.2168,4.1504,-10.376,9.0942
586528,0.7213,-0.0835,0.2194,-5.3711,-12.5122,4.4556
586549,0.7369,-0.0997,0.2483,-8.0566,-13.3667,2.8687
586569,0.7971,-0.1046,0.2449,-10.0098,-11.1084,3.6621
586589,0.8284,-0.0845,0.2308,-11.3525,-3.6011,4.5166
586609,0.901,-0.0439,0.2527,-9.3994,-2.3804,4.3945
586629,0.942,-0.0327,0.271,-7.8735,1.9531,2.5635
586649,1.0514,-0.0465,0.2744,-11.5967,9.4604,4.0894
586669,1.1353,-0.0364,0.2712,-15.0757,11.7798,8.1177
586709,1.1423,-0.0413,0.399,-15.9912,-0.9766,11.1084
586749,1.0676,0.0437,0.4532,-12.2681,-2.5635,8.7891
586769,1.0671,0.0431,0.4725,-13.9771,4.0283,8.728
586792,0.986,0.1135,0.5282,-9.2773,8.3618,4.7607
586813,0.9817,0.1678,0.5249,-3.7842,8.2397,2.5635
586833,0.9561,0.1772,0.5105,-7.5684,9.3384,2.1973
586853,0.9949,0.1224,0.4591,-13.4277,6.7139,2.7466
586873,0.9845,0.0649,0.4323,-17.8833,4.8828,-2.9907
586895,0.989,0.073,0.3859,-18.2495,0.9766,-7.7515
586915,0.9547,0.1031,0.3636,-19.3481,0.4883,-10.1318
586935,0.9164,0.1095,0.3251,-17.7002,-0.9155,-12.6953
586955,0.865,0.0803,0.2998,-16.1743,-2.3193,-15.9912
586976,0.8202,0.0833,0.2546,-15.9912,-4.2725,-15.9302
587036,0.7234,0.1174,0.2175,-6.2256,-1.8921,-11.7188
587064,0.7129,0.1149,0.1907,-2.6855,-0.7324,-12.2681
587104,0.7267,0.0956,0.2086,1.709,-6.897,-6.0425
587124,0.7394,0.0836,0.2264,0.7935,-1.77,-4.4556
587144,0.7985,0.0844,0.2493,0,1.8311,-3.7231
587164,0.8569,0.094,0.2667,1.5259,1.2207,-3.0518
587184,0.8898,0.0735,0.2561,1.77,-0.6714,-3.1128
587207,0.9313,0.071,0.2772,1.6479,3.3569,-3.1128
587227,1.048,0.0892,0.2684,2.7466,3.8452,-3.479
587247,1.0621,0.0782,0.255,2.9297,0.3052,-4.3335
587268,1.0737,0.0745,0.2981,5.6763,0.7935,-5.6763
587288,1.2252,0.0421,0.2532,3.418,8.3618,-4.7607
587308,1.1997,0.0013,0.2896,3.1128,5.7373,-4.5166
587328,1.1448,-0.0347,0.4854,-0.4272,5.5542,-4.8828
587348,1.1907,-0.0791,0.4512,-1.6479,9.7046,-3.1128
587368,1.125,-0.1246,0.451,-3.8452,8.9111,-2.3193
587388,0.9208,-0.1483,0.4756,1.3428,17.334,-2.0142
587408,0.9781,-0.113,0.4734,3.54,26.7334,-1.2817
587428,1.0685,-0.0846,0.4062,15.1978,18.4326,0.9155
587448,1.0031,-0.0848,0.3813,19.4092,12.6953,4.0283
587468,0.8782,-0.076,0.3538,22.9492,5.5542,8.728
587488,0.8613,-0.0894,0.3376,23.0103,4.1504,10.8032
587508,0.8954,-0.1074,0.28,22.7661,7.5684,11.5967
587568,0.8088,-0.1371,0.1976,22.0337,3.2959,15.1978
587588,0.8052,-0.1066,0.1633,16.7236,2.0142,15.4419
587610,0.8397,-0.1017,0.1653,16.9678,-11.1084,13.1226
587631,0.8054,-0.1173,0.1752,18.0664,-16.1743,13.4888
587651,0.8018,-0.12,0.1951,15.3198,-19.043,12.6343
587671,0.7854,-0.1289,0.2086,13.0615,-21.6675,11.9019
587695,0.7703,-0.1299,0.191,7.3242,-18.6157,8.9111
587716,0.7631,-0.1304,0.2168,3.0518,-14.8315,7.3242
587736,0.7858,-0.1333,0.2172,-0.4883,-12.0239,6.0425
587756,0.8881,-0.1025,0.2219,-2.0752,-7.9956,4.9438
587776,0.917,-0.0916,0.2247,-1.8921,-5.4932,5.3101
587816,1.0183,-0.0966,0.2472,-6.4697,-0.9155,5.6152
587836,1.1055,-0.0831,0.254,-11.4746,-1.709,7.4463
587856,1.0734,-0.0814,0.2548,-14.4043,-5.0049,7.5073
587876,1.066,-0.0837,0.3,-19.165,-5.9814,7.0801
587896,1.2689,-0.0131,0.2997,-21.4233,-0.6714,9.3994
587916,1.0612,0.0618,0.4436,-15.564,-2.1362,6.5918
587936,1.1049,0.1167,0.5078,-11.2915,2.5635,4.4556
587956,1.0912,0.1378,0.5117,-7.4463,6.2866,5.0659
587976,1.0405,0.2169,0.547,-2.0752,3.54,2.9297
587996,0.9492,0.2379,0.4844,1.3428,3.1738,1.77
588016,0.9121,0.1664,0.5167,-3.0518,7.3242,5.4932
588036,0.9426,0.1099,0.4366,-4.9438,6.958,7.019
588056,0.9093,0.073,0.421,-1.4648,5.0049,0.9766
588077,0.9091,0.0973,0.3713,2.9297,3.1128,-5.7983
588097,0.9243,0.1021,0.3484,6.1035,-0.3662,-9.2163
588117,0.8575,0.1046,0.3077,7.6294,0,-10.0098
588140,0.7971,0.0632,0.2913,6.5308,3.2959,-10.9863
588161,0.8215,0.0614,0.2714,6.2256,7.5684,-8.8501
588181,0.8218,0.0609,0.2468,8.5449,0.6104,-4.3945
588201,0.7913,0.0603,0.2268,8.5449,1.5259,-3.0518
588221,0.7767,0.0612,0.2153,10.0708,-0.7324,-3.0518
588243,0.7714,0.0654,0.1992,12.6343,-2.6855,-3.1738
588264,0.7391,0.0657,0.1973,16.9067,-7.1411,-5.3711
588284,0.7654,0.0698,0.1985,15.8691,-2.2583,-4.0894
588304,0.7793,0.0604,0.2017,16.2354,-1.6479,-2.5635
588325,0.8312,0.0433,0.2122,15.8081,-0.7935,-1.709
588345,0.8475,0.036,0.2095,13.4888,0.3662,-0.061
588366,0.89,0.0125,0.2037,11.9019,0.9155,0.9766
588386,0.9037,0.0031,0.226,8.1787,0.5493,1.1597
588406,1.0317,0.0193,0.2188,5.9204,1.8921,0.1831
588426,1.0806,0.0198,0.2101,4.5166,-0.7935,-2.6855
588446,1.0865,0.0076,0.2025,4.5166,-4.4556,-4.2114
588466,1.0483,0.0476,0.2815,5.7983,-4.6997,-5.6763
588486,1.2483,0.067,0.2982,8.2397,-0.061,-5.9204
588506,1.0493,0.0024,0.3184,9.8877,-8.9111,-6.3477
588526,1.0171,-0.0002,0.4447,8.1177,-4.0894,-7.4463
588546,1.2081,-0.0327,0.4647,7.3242,10.5591,-2.1362
588566,1.1151,-0.1167,0.4698,4.8218,7.6294,1.3428
588586,0.9526,-0.1704,0.4769,2.9297,7.6294,1.0986
588606,0.9501,-0.145,0.4475,3.9062,20.3857,0.2441
588626,0.9678,-0.0996,0.4038,10.8643,12.2681,2.8076
588646,0.9161,-0.0723,0.4044,18.4937,4.4556,4.2114
588666,0.9081,-0.0952,0.3484,17.2729,2.9907,8.8501
588686,0.8967,-0.1393,0.3467,15.9302,5.0659,10.5591
588710,0.9481,-0.1385,0.3096,15.2588,2.8687,10.8032
588730,0.9021,-0.1222,0.2863,13.7329,-0.2441,9.0332
588750,0.8538,-0.129,0.2714,12.8174,-3.6621,7.9956
588773,0.8456,-0.1467,0.2406,6.5918,-2.3804,7.019
588793,0.8184,-0.1371,0.2308,2.1973,-4.6387,7.3853
588813,0.7799,-0.1343,0.2322,-1.0986,-8.3008,6.2256
588833,0.7765,-0.1025,0.2283,-2.3193,-10.2539,5.0049
588856,0.7677,-0.0792,0.2252,-2.0752,-14.2822,4.1504
588876,0.7439,-0.0823,0.1965,-2.5024,-15.9302,5.0659
588896,0.707,-0.094,0.2103,-7.0801,-12.085,6.6528
588916,0.7869,-0.1057,0.2089,-8.4229,-9.5825,6.2866
588936,0.8131,-0.1185,0.2279,-10.0098,-10.0098,4.1504
588956,0.8541,-0.0975,0.2537,-10.7422,-7.5684,2.9907
588976,0.8802,-0.0728,0.2653,-8.8501,-5.249,1.709
588996,0.9121,-0.0474,0.2523,-7.6294,-0.9766,2.9907
589016,0.9958,-0.0389,0.2676,-8.3008,3.6011,5.7983
589036,1.0677,-0.0189,0.2651,-9.0942,1.0986,8.2397
589056,1.0912,-0.0138,0.2612,-8.9111,-1.8311,8.9722
589076,1.0894,-0.0273,0.302,-11.1084,-2.4414,9.8267
589096,1.2694,-0.0227,0.3267,-13.2446,4.2725,10.9253
589117,1.1058,0.046,0.4053,-9.2773,1.3428,8.0566
589137,1.1145,0.0768,0.4906,-4.2725,1.1597,4.3945
589158,1.093,0.0981,0.5031,-2.3193,4.8218,4.4556
589178,0.9878,0.1451,0.4915,4.3945,-0.6104,1.8921
589198,0.9242,0.1683,0.4425,4.8218,7.2021,3.6621
589221,0.9457,0.1074,0.432,-2.2583,20.4468,7.6904
589241,1.01,0.0658,0.3915,-6.5918,11.4136,6.8359
589261,0.9276,0.0548,0.3936,-5.5542,0.3052,0.1831
589281,0.881,0.0881,0.4048,-2.9907,-0.8545,-8.9722
589301,0.8624,0.1125,0.3682,-1.8311,-0.6714,-11.7188
589341,0.8051,0.0911,0.3008,-2.3193,7.0801,-9.8267
589401,0.823,0.084,0.2197,0.1221,-1.6479,-3.479
589421,0.799,0.0751,0.2162,2.6245,-2.3804,-3.6621
589441,0.7799,0.0673,0.2081,6.8359,-5.4932,-3.6011
589461,0.7715,0.0715,0.1968,9.4604,-11.6577,-2.3804
589481,0.7605,0.0634,0.2119,9.5215,-11.2915,-3.7842
589501,0.7767,0.0544,0.2008,9.5215,-6.7139,-3.9062
589521,0.7959,0.0457,0.215,7.019,-2.8076,-3.7231
589541,0.8401,0.025,0.218,4.8828,0,-3.8452
589561,0.8741,0.0223,0.2257,3.3569,2.9297,-4.8828
589581,0.9236,0.0275,0.2277,3.54,2.9907,-5.3101
589601,0.9877,0.0375,0.2557,2.6855,2.1973,-5.6763
589642,1.0782,0.0461,0.2495,1.6479,-6.0425,-5.0659
589662,1.0623,0.0273,0.2483,1.4648,-8.9111,-4.8218
589682,1.0219,0.0341,0.2561,3.1128,-6.4697,-6.4697
589702,1.1825,0.0847,0.3364,6.4697,-2.1362,-7.6904
589724,1.1587,0.0168,0.3549,11.7188,-4.6997,-6.958
589744,0.8851,0.0459,0.4915,11.5967,-0.7324,-7.1411
589764,1.1182,0.0316,0.4727,12.8174,15.4419,-1.5259
589784,1.1027,-0.0792,0.4929,12.2681,15.1367,1.8921
589804,1.0114,-0.1633,0.4795,13.5498,13.0615,1.2207
589824,0.9803,-0.1859,0.4761,15.4419,19.2871,1.8311
589844,1.02,-0.1798,0.4546,19.4092,13.855,2.3804
589864,0.9846,-0.1676,0.4253,21.2402,6.2866,1.4648
589884,0.8831,-0.1542,0.3855,23.1323,-5.3711,4.0894
589904,0.87,-0.1425,0.365,21.8506,-1.8311,8.0566
589924,0.9023,-0.1313,0.334,19.7144,1.8921,11.0474
589944,0.8499,-0.116,0.2837,18.8599,0.8545,11.9019
589964,0.8099,-0.1028,0.2703,16.7236,0,13.2446
589987,0.7957,-0.116,0.2439,12.0239,-0.1831,13.916
590007,0.8147,-0.1377,0.2211,6.1646,-2.1362,11.9629
590027,0.8259,-0.1581,0.2101,2.6855,-6.0425,10.8643
590047,0.7958,-0.1405,0.2196,0.6714,-15.9912,9.0332
590067,0.7886,-0.1293,0.2162,-0.1831,-15.564,7.3853
590087,0.7438,-0.1205,0.2002,-3.1738,-19.8364,4.1504
590152,0.8354,-0.1375,0.2474,-15.564,-6.2866,1.4648
590172,0.8838,-0.111,0.2515,-14.7095,-5.4321,0.4883
590193,0.9252,-0.0591,0.2761,-12.085,-2.5635,-0.6714
590214,0.9351,-0.0616,0.2881,-12.085,-1.1597,-0.4883
590234,1.0039,-0.0898,0.3035,-16.7236,-1.4648,3.2349
590254,1.0867,-0.0795,0.2987,-18.1885,-4.9438,5.5542
590274,1.0551,-0.043,0.321,-18.6157,-9.3384,7.8735
590294,1.2002,-0.0015,0.3945,-17.0288,-5.7983,11.8408
590314,1.1903,0.0427,0.3785,-12.4512,-6.2866,13.5498
590334,1.0145,0.0739,0.5154,-9.2773,-7.1411,10.6201
590356,1.108,0.0594,0.5574,-10.3149,3.418,9.7656
590376,1.0769,0.0759,0.5302,-11.4746,9.4604,7.5684
590396,0.8954,0.1337,0.5319,-8.667,6.7139,1.0376
590419,0.8494,0.1398,0.4647,-9.3994,20.1416,-0.4883
590439,0.9072,0.1257,0.4775,-12.8784,24.5361,0.1221
590459,0.9338,0.1216,0.4218,-8.3008,9.5215,-3.7842
590479,0.8651,0.1324,0.4113,-5.9814,5.9204,-9.1553
590499,0.8632,0.1448,0.3961,-3.479,4.4556,-12.4512
590519,0.8948,0.1399,0.3629,-1.0376,8.9722,-12.4512
590539,0.8496,0.1271,0.3198,1.8921,7.4463,-10.9863
590560,0.8206,0.105,0.3091,4.2725,5.188,-10.2539
590580,0.8374,0.1091,0.2859,6.7139,0.7324,-8.9722
590623,0.8083,0.0818,0.2509,12.207,-7.7515,-1.9531
590643,0.7723,0.056,0.244,15.3809,-6.4697,-3.2349
590663,0.7494,0.0493,0.2397,17.6392,-8.3008,-3.1738
590683,0.7454,0.0382,0.2355,19.8364,-4.8828,-2.4414
590703,0.7858,0.036,0.2317,20.2637,-0.8545,-2.4414
590724,0.7961,0.0282,0.23,20.3247,-0.7324,-2.1362
590744,0.8278,0.0142,0.2269,18.9819,-1.6479,-0.5493
590764,0.8555,0.0192,0.2417,17.7612,2.0752,-1.3428
590784,0.8866,0.0323,0.2589,17.5171,2.5635,-1.0986
590804,0.9227,0.0145,0.2577,18.1274,1.0376,-0.1221
590824,0.9709,0.0199,0.2585,17.4561,-0.2441,0.4272
590844,1.0122,0.0265,0.2655,17.2729,-2.1362,0.3052
590865,1.0344,0.0173,0.272,15.686,-5.0049,-0.1831
590886,1,0.0046,0.3013,14.7095,-3.6011,-0.9766
590906,1.0889,0.0104,0.3481,15.3809,-0.3662,-2.5635
590926,1.1188,-0.0114,0.3403,17.7612,0.9155,-4.0283
590946,1.0082,-0.0314,0.4349,18.7378,-0.4272,-5.7373
590966,1.179,-0.0863,0.4825,15.4419,11.1084,-0.7935
590990,1.1187,-0.1466,0.4792,13.0615,6.5918,1.6479
591010,0.9126,-0.2261,0.4773,8.5449,10.5591,1.5259
591034,0.9265,-0.1945,0.4707,7.6294,18.8599,1.8311
591054,0.9492,-0.1265,0.4291,15.2588,14.2822,1.8311
591116,0.8728,-0.1401,0.3602,17.9443,3.9062,10.9863
591136,0.9193,-0.1602,0.3213,13.5498,11.4136,13.1226
591157,0.9462,-0.1593,0.2944,11.3525,8.8501,13.4888
591177,0.8983,-0.1582,0.266,10.437,3.7842,10.9863
591197,0.8408,-0.1458,0.2369,6.3477,1.709,8.9111
591217,0.8209,-0.1342,0.2272,3.8452,0.7935,8.606
591237,0.8234,-0.1246,0.2128,2.4414,-1.6479,7.7515
591257,0.8195,-0.1045,0.1974,1.2817,-7.019,6.7139
591277,0.7758,-0.0801,0.2004,0.1221,-10.9253,9.1553
591297,0.7732,-0.0742,0.187,-1.3428,-9.9487,8.4229
591317,0.7701,-0.0847,0.1805,-2.4414,-12.6953,8.3008
591341,0.7881,-0.1011,0.1925,-3.479,-11.4136,7.9346
591361,0.8523,-0.1007,0.1927,-6.2866,-7.9956,6.5918
591381,0.8645,-0.0927,0.225,-7.3853,-7.8125,5.4932
591401,0.925,-0.0939,0.2563,-8.1787,-4.8218,3.7842
591421,0.9702,-0.0929,0.2606,-7.2632,-3.2349,2.9297
591441,0.9889,-0.0938,0.2737,-9.5215,-1.4038,2.0752
591461,1.0265,-0.0784,0.2754,-12.3291,-1.4648,3.9673
591483,1.0206,-0.0413,0.2573,-14.8926,-2.4414,5.6152
591504,0.9503,-0.019,0.255,-15.5029,-4.6387,7.019
591524,1.0305,-0.0126,0.3192,-15.1367,-1.5869,7.7515
591545,1.2025,0.0145,0.2988,-11.4746,3.1128,10.437
591565,1.0099,0.0519,0.4158,-9.5825,1.8921,8.4229
591585,1.1193,0.0437,0.4528,-7.1411,3.0518,5.8594
591608,1.139,0.0624,0.4769,-5.3711,3.54,4.5776
591628,1.0723,0.1257,0.4817,-1.3428,3.418,-0.3662
591648,0.9591,0.1642,0.4407,-0.061,9.8877,0.3662
591668,0.9435,0.1293,0.4329,-3.8452,16.5405,4.2114
591688,0.972,0.1174,0.3788,-8.7891,14.1602,3.7842
591750,0.896,0.0955,0.366,1.4038,3.7231,-7.0801
591770,0.9268,0.0922,0.3114,1.6479,3.7231,-6.4087
591790,0.8231,0.0841,0.2874,2.6245,1.5869,-5.3711
591810,0.813,0.0786,0.2673,3.1128,-6.3477,-5.6763
591830,0.8218,0.0776,0.255,3.1738,-6.3477,-4.3335
591851,0.8132,0.08,0.2394,2.5635,-6.4087,-2.8076
591871,0.807,0.0702,0.2421,2.6855,-9.8877,-2.1362
591894,0.7661,0.0465,0.2339,4.6387,-13.916,-2.7466
591914,0.7788,0.051,0.2512,4.0894,-13.5498,-3.1738
591934,0.8031,0.0752,0.2505,6.7139,-15.1978,-4.1504
591957,0.8085,0.1064,0.256,7.1411,-9.0942,-4.3945
591977,0.7911,0.1125,0.271,7.8735,-5.3101,-2.6245
591997,0.8096,0.0995,0.2733,8.7891,-0.3662,-1.4648
592017,0.8815,0.0673,0.2809,8.2397,3.418,-0.3662
592039,0.9269,0.0477,0.2772,7.8735,3.6011,-0.1221
592059,0.9602,0.0465,0.2859,8.4839,2.5024,-0.3662
592079,1.0206,0.0482,0.2871,9.2163,0.7324,-1.1597
592119,0.9532,0.0486,0.2833,8.9722,0.1831,-2.1973
592139,1.0985,0.066,0.3409,9.3384,6.5308,-2.1362
592159,1.1351,0.0443,0.2931,10.8032,5.188,-2.0142
592182,0.9337,0.0148,0.4225,11.2305,2.0142,-2.2583
592202,1.1191,0.0133,0.4324,10.0098,11.6577,0.6714
592222,1.1764,-0.0385,0.4453,8.0566,11.4136,5.4932
592242,1.0536,-0.1278,0.4237,6.5918,12.0239,6.0425
592262,0.9327,-0.1613,0.4294,7.9346,13.1836,6.1646
592282,0.9985,-0.1198,0.4092,8.9111,14.2212,6.4697
592302,0.9832,-0.099,0.3839,14.0381,8.9722,5.9204
592325,0.9048,-0.0734,0.3672,18.3105,7.2021,6.897
592346,0.91,-0.0865,0.3481,18.7378,6.4697,9.8267
592366,0.8809,-0.1471,0.3282,17.5781,3.1128,11.0474
592386,0.9216,-0.1583,0.2864,14.9536,4.0894,12.2681
592406,0.9391,-0.1619,0.2538,9.8267,2.1362,11.5356
592426,0.8617,-0.146,0.2495,6.2866,-1.3428,10.5591
592467,0.8434,-0.1111,0.2076,-1.5259,-4.0894,4.7607
592487,0.8251,-0.1151,0.2019,-2.8076,-7.019,2.5024
592507,0.8226,-0.0759,0.2242,-4.6997,-11.7798,0.4883
592527,0.8098,-0.073,0.225,-6.7139,-14.7095,-1.1597
592547,0.7847,-0.0616,0.2162,-6.8359,-15.625,-1.5259
592571,0.7908,-0.0751,0.2133,-10.6201,-9.0942,-2.4414
592591,0.8268,-0.071,0.2124,-16.2964,-1.0986,-2.8687
592614,0.8373,-0.0566,0.2173,-15.2588,-4.0283,-4.3335
592634,0.8436,-0.0806,0.2454,-16.4795,-6.1646,-4.3945
592654,0.8817,-0.0751,0.25,-19.104,-5.3101,-4.3945
592674,0.8951,-0.0598,0.2637,-17.8223,-5.5542,-3.9673
592694,0.8999,-0.0575,0.2875,-17.4561,0.1221,-3.7231
592714,0.972,-0.045,0.2917,-17.395,2.1973,-2.0142
592734,1.0209,-0.0342,0.2765,-17.8833,0.3052,-0.2441
592754,1.011,-0.0376,0.2743,-20.1416,1.5869,1.4038
592774,1.0981,-0.0492,0.3208,-24.6582,11.1084,3.2349
592794,1.2913,-0.0031,0.2949,-20.5078,14.9536,1.8311
592814,1.1202,0.0464,0.3821,-13.4277,7.3242,-1.709
592834,1.1907,0.0728,0.4481,-11.5967,8.9722,-0.8545
592854,1.171,0.0845,0.4634,-10.437,7.7515,0.8545
592874,0.9761,0.1261,0.4543,-7.0801,-0.5493,-0.4883
592894,0.9199,0.1199,0.4572,-10.0708,13.4888,-0.6714
592914,0.9192,0.0964,0.4054,-12.2681,16.7847,-0.8545
592934,0.9929,0.1156,0.3845,-12.146,9.7656,-2.8076
592954,0.9194,0.1389,0.3893,-5.6763,-0.6714,-6.4697
592974,0.8379,0.1584,0.3632,2.8687,-1.77,-9.0942
592996,0.8829,0.1766,0.3345,6.6528,2.9907,-8.5449
593016,0.9193,0.1655,0.3177,12.0239,2.1362,-4.3945
593036,0.8442,0.1023,0.2887,15.0146,-1.77,-2.9907
593056,0.8175,0.064,0.2894,18.0054,-3.1128,-2.2583
593076,0.8,0.0593,0.2449,17.5781,-2.5635,-0.8545
593096,0.7814,0.0469,0.2278,15.1367,-2.0752,1.4648
593117,0.7826,0.0363,0.2172,16.1743,-5.9814,1.2207
593137,0.7894,0.04,0.1956,17.6392,-10.7422,-1.8311
593157,0.7965,0.0442,0.1926,16.4795,-9.3384,-0.7935
593177,0.8055,0.0387,0.2031,15.2588,-11.2305,-1.8921
593197,0.7914,0.0304,0.1948,13.4277,-12.085,-5.6152
593217,0.7908,0.0201,0.2112,7.7515,-10.1929,-6.6528
593237,0.823,0.0073,0.2146,3.3569,-5.4321,-7.2632
593257,0.8542,0.0048,0.229,0.2441,-4.9438,-8.1787
593277,0.874,0.019,0.2307,-3.1128,-2.9907,-8.4839
593297,0.9694,0.0231,0.2571,-7.2632,-0.3662,-8.3618
593318,1.0707,0.0221,0.243,-10.6812,-0.3662,-7.8735
593338,1.0725,0.0166,0.2512,-11.9019,-6.958,-10.1929
593358,1.0688,0.001,0.2396,-12.2681,-8.8501,-11.8408
593378,1.0565,0.004,0.2443,-12.207,-6.6528,-13.2446
593398,1.1506,0.041,0.3284,-10.6201,-7.6294,-15.5029
593418,1.2565,0.0533,0.2804,-8.606,-11.5356,-15.3198
593438,0.9847,0.0216,0.3914,-7.2021,-18.8599,-15.0146
593458,1.1238,-0.0238,0.4979,-12.6343,-0.3662,-11.5356
593478,1.1368,-0.0989,0.5588,-16.3574,2.6855,-7.2632
593498,1.0986,-0.1525,0.5293,-21.1792,6.897,-3.9673
593518,0.9537,-0.175,0.548,-18.7988,11.2915,-5.127
593538,0.9685,-0.1443,0.5013,-6.958,10.376,-4.2725
593558,0.9413,-0.101,0.501,-3.3569,8.8501,-4.2725
593578,0.8331,-0.0479,0.4581,4.1504,2.5635,-2.8687
593602,0.7543,-0.0695,0.4058,6.8359,0.6714,0.8545
593622,0.762,-0.0964,0.3623,4.8828,2.7466,7.7515
593642,0.847,-0.1431,0.3379,1.4038,4.5776,14.8315
593666,0.7714,-0.17,0.3107,-0.4272,-4.4556,14.8315
593686,0.7677,-0.1702,0.2877,-7.5073,-1.2207,14.0991
593706,0.8284,-0.1615,0.2855,-13.3057,0.1831,12.146
593726,0.8241,-0.1423,0.2776,-18.2495,-9.3384,7.2632
593746,0.8118,-0.1141,0.2451,-21.4233,-17.334,2.1973
593766,0.7786,-0.1039,0.2428,-23.3765,-21.4233,-1.709
593786,0.7317,-0.0969,0.2285,-23.8037,-24.1089,-5.8594
593806,0.7374,-0.0918,0.2433,-28.6865,-10.498,-10.1318
593826,0.7516,-0.066,0.2448,-30.0293,-4.2114,-8.667
593847,0.7875,-0.0613,0.2767,-31.25,-1.77,-7.5684
593867,0.8196,-0.0424,0.2809,-31.0669,-1.5259,-6.1646
593887,0.8438,-0.0256,0.2881,-30.2124,-0.7935,-5.4932
593907,0.8564,-0.0273,0.3055,-26.9775,1.8311,-4.9438
593927,0.921,-0.0477,0.3467,-25.3296,9.1553,-2.8687
593947,1.0531,-0.067,0.3224,-28.1982,2.7466,2.8687
593967,1.0604,-0.05,0.3104,-30.1514,1.2817,3.7842
593987,1.0623,-0.0426,0.3586,-33.0811,6.3477,3.7231
594008,1.3105,-0.0444,0.3911,-36.377,15.0757,6.958
594028,1.1584,0.0502,0.4829,-31.8604,10.1929,9.1553
594048,1.1299,0.0787,0.5636,-32.1045,3.6011,5.0049
594068,1.1873,0.1082,0.5338,-32.2266,5.0659,2.1362
594091,0.9404,0.2234,0.5654,-26.001,3.9673,-1.4038
594111,0.861,0.2147,0.4998,-25.5737,13.916,-3.1738
594131,0.9001,0.1545,0.5065,-32.5317,15.3809,-3.1128
594151,0.9652,0.1018,0.4579,-34.668,10.6812,-10.3149
594173,0.9187,0.1567,0.3984,-29.7852,8.1177,-18.4326
594193,0.8835,0.1776,0.3499,-20.6299,2.3804,-23.3154
594213,0.9104,0.1566,0.3269,-16.2354,6.897,-23.7427
594233,0.8168,0.1411,0.2864,-10.498,3.6011,-23.0103
594254,0.8285,0.1378,0.2668,-6.958,7.1411,-19.3481
594274,0.7914,0.1136,0.2341,-6.0425,7.0801,-13.7329
594294,0.8318,0.1124,0.2294,-4.7607,3.9062,-10.498
594317,0.7595,0.1008,0.1813,2.5024,-7.2632,-8.4229
594337,0.6356,0.0544,0.2319,6.7139,-12.8174,-5.3101
594357,0.6129,0.0248,0.2283,7.9956,-8.5449,-3.7842
594377,0.6947,0.0343,0.2332,9.2773,-2.2583,-2.5024
594397,0.7657,0.0315,0.2313,9.0942,1.4038,0.2441
594417,0.7448,0.0238,0.2484,7.9346,2.6855,0.8545
594437,0.7611,0.0347,0.2343,7.8125,9.5215,-0.3052
594457,0.8367,0.0454,0.2246,6.7139,15.9912,-0.1831
594478,0.9603,0.0516,0.1931,4.8218,15.9302,0.5493
594498,1.0754,0.0748,0.2133,5.9204,9.0332,-1.4648
594518,1.1313,0.0841,0.2119,6.3477,-0.6104,-2.8687
594538,1.2019,0.0345,0.1888,1.9531,-6.4697,-3.2349
594558,1.166,0.0485,0.2291,3.418,-7.9346,-7.8125
594578,1.2867,0.0646,0.3086,6.4087,-5.6152,-10.0098
594598,1.2092,0.0217,0.2552,7.5073,-9.8877,-9.4604
594618,0.9218,0,0.5487,4.9438,-7.9956,-9.8877
594640,1.1544,-0.0402,0.4767,10.6812,16.4795,-5.4321
594660,1.0931,-0.1155,0.512,9.7656,18.0054,-0.9155
594680,0.985,-0.2107,0.5232,6.2256,22.9492,0.8545
594700,1.0541,-0.1416,0.4791,13.2446,16.9067,2.6245
594720,1.0084,-0.1014,0.4443,21.0571,4.5776,2.6245
594740,0.9447,-0.0948,0.3828,23.1323,2.2583,5.4932
594760,0.8871,-0.1302,0.3682,21.6675,3.9062,9.4604
594780,0.9261,-0.1577,0.3229,17.2119,13.2446,10.498
594800,0.9247,-0.1299,0.2675,15.8081,11.5967,10.376
594820,0.8318,-0.0938,0.2294,16.5405,2.1362,10.1318
594844,0.7899,-0.0789,0.2111,13.1836,-1.1597,10.1929
594864,0.7592,-0.1152,0.1841,6.897,0.1831,10.8032
594884,0.7434,-0.1337,0.1615,3.9673,-3.7842,10.5591
594904,0.7639,-0.1414,0.1521,1.709,-5.249,9.4604
594926,0.7549,-0.1078,0.1669,2.9297,-10.9863,10.5591
594946,0.7666,-0.0813,0.1609,2.8687,-15.8691,10.5591
594966,0.7308,-0.085,0.1603,1.4038,-22.0337,10.7422
594986,0.6936,-0.1123,0.1921,0.5493,-23.1934,9.9487
595006,0.7863,-0.1217,0.2151,-2.9297,-21.6675,7.9346
595026,0.8867,-0.1108,0.2444,-3.418,-19.2261,8.9111
595047,0.9814,-0.066,0.2148,-0.4272,-19.7144,9.8877
595067,1.0002,-0.0571,0.2316,3.7231,-23.0713,9.0942
595087,0.9851,-0.1021,0.3162,-3.2349,-15.1367,7.8735
595107,1.0784,-0.1064,0.3119,-9.3384,-9.2773,9.7046
595127,1.1097,-0.0748,0.2948,-13.4888,-6.7749,9.5215
595147,1.0555,-0.0516,0.3811,-15.0146,-3.8452,9.9487
595167,1.2892,-0.0123,0.401,-16.1133,2.9297,11.1694
595187,1.1755,0.0862,0.4277,-10.9863,-2.9907,9.6436
595207,1.049,0.089,0.592,-7.0801,-4.6387,7.6904
595227,1.0956,0.1119,0.5553,-8.7891,10.1929,6.7749
595247,0.985,0.1722,0.6,-4.2114,6.897,3.6011
595269,0.9331,0.1864,0.5568,-3.9062,5.9204,2.0752
595289,0.9246,0.1398,0.588,-14.7095,21.4844,4.0283
595309,0.9473,0.0953,0.5004,-17.0898,15.7471,-1.6479
595329,0.8796,0.0818,0.4742,-16.5405,13.855,-7.2021
595349,0.9192,0.0847,0.4213,-14.2212,12.5732,-10.376
595369,0.9291,0.0927,0.3718,-9.6436,7.5684,-13.1836
595389,0.874,0.1023,0.3279,-7.9346,3.8452,-16.2354
595409,0.7678,0.0979,0.2864,-9.1553,1.8311,-16.6016
595429,0.7739,0.094,0.2559,-11.4746,11.4746,-13.1226
595449,0.8035,0.0822,0.2427,-10.0098,10.1318,-12.7563
595469,0.7581,0.1041,0.2072,-5.5542,-0.1831,-14.0991
595491,0.6949,0.0945,0.2001,-1.2207,-4.6387,-14.4653
595511,0.713,0.0837,0.1615,4.3335,-8.4839,-12.3901
595533,0.7233,0.038,0.1718,4.3335,-6.7749,-10.3149
595554,0.7522,0.0514,0.1676,4.5776,-7.9346,-8.3008
595575,0.7611,0.0292,0.1885,5.0049,-13.4277,-5.9204
595595,0.799,0.0408,0.2037,2.4414,-10.6201,-6.4087
595615,0.8353,0.0496,0.2207,1.8921,-5.127,-5.9814
595635,0.9458,0.0593,0.2389,1.3428,1.3428,-4.0283
595655,1.0122,0.0734,0.2366,1.9531,-0.7935,-4.7607
595675,1.0735,0.0898,0.2845,5.7373,-2.1973,-6.4087
595695,1.1354,0.0717,0.2626,7.8125,-4.9438,-8.5449
595717,1.045,0.0431,0.2538,5.9814,-7.0801,-9.4604
595737,1.0439,0.0674,0.4573,4.6997,2.0752,-10.0708
595757,1.2198,-0.0022,0.3206,8.667,2.6855,-6.5918
595777,0.993,-0.0806,0.5605,5.9814,0.061,-6.4087
595797,1.1107,-0.1255,0.5317,5.188,18.1274,-2.9297
595817,1.0454,-0.1605,0.504,4.2725,13.9771,-1.1597
595837,0.9418,-0.2092,0.5308,3.6011,14.2212,0.4883
595857,1.0344,-0.1737,0.5049,10.3149,22.3389,2.6855
595877,1.0914,-0.1139,0.5045,20.3247,12.6343,4.0283
595897,1.0088,-0.1027,0.4437,26.6113,2.0142,8.606
595917,0.9156,-0.1176,0.4254,25.6958,1.5259,10.6201
595937,0.9504,-0.1486,0.3539,20.874,10.0098,12.3901
595958,0.91,-0.146,0.3042,18.1274,10.3149,12.2681
595978,0.8363,-0.1152,0.2758,14.2212,10.5591,11.6577
595999,0.8132,-0.1121,0.2233,11.6577,6.958,8.4229
596019,0.7692,-0.0977,0.2015,11.4136,-6.0425,12.146
596040,0.7554,-0.1169,0.1974,8.0566,-10.6201,10.1929
596060,0.6985,-0.1189,0.1813,4.0283,-11.2305,10.1929
596081,0.7465,-0.1161,0.2015,0.9155,-9.4604,9.3994
596104,0.7454,-0.0652,0.2007,1.3428,-13.7329,9.5825
596124,0.7604,-0.0612,0.1899,2.3804,-21.5454,8.7891
596144,0.7469,-0.0959,0.1987,2.0752,-19.5312,9.0332
596164,0.7623,-0.1167,0.2042,-1.9531,-14.8926,8.4229
596184,0.7778,-0.1083,0.2336,-3.418,-12.5122,5.9204
596204,0.8093,-0.0941,0.2478,-4.3335,-8.3008,6.3477
596225,0.8702,-0.0823,0.2687,-1.5259,-9.7046,6.7139
596246,0.939,-0.0947,0.266,-2.5024,-3.7231,5.7983
596266,1.0018,-0.0929,0.2859,-7.3242,4.6997,6.1646
596286,1.0723,-0.085,0.2762,-9.3384,4.2114,8.728
596306,1.0861,-0.0631,0.2773,-9.7046,0.9155,9.8267
596326,1.1305,-0.0791,0.3607,-12.085,-2.3193,9.5825
596347,1.343,-0.0402,0.3378,-13.4888,3.2349,12.0239
596367,1.2023,0.0455,0.3965,-9.6436,-2.0752,12.207
596388,1.0931,0.0272,0.5627,-12.6953,-0.9155,12.7563
596408,1.0741,0.0597,0.5883,-14.5874,10.9863,10.376
596428,0.9648,0.1517,0.6294,-11.6577,5.7983,4.2725
596448,0.8949,0.1794,0.5497,-9.4604,8.2397,2.5635
596468,1.0165,0.1479,0.5205,-20.5078,18.0664,1.77
596488,1.0079,0.1158,0.4886,-20.3247,10.9253,-0.3662
596508,0.8713,0.0853,0.4591,-18.7378,6.5918,-9.3384
596528,0.8844,0.0924,0.4088,-15.7471,7.4463,-13.1836
596552,0.8917,0.1078,0.3474,-11.1694,7.0801,-15.1978
596572,0.8101,0.1281,0.3186,-9.7656,3.9062,-14.0381
596593,0.7683,0.1166,0.2809,-12.085,3.8452,-13.4277
596613,0.7859,0.1099,0.2368,-12.3291,3.2959,-10.3149
596634,0.7943,0.0964,0.2118,-9.0942,0.061,-8.9722
596654,0.7557,0.1021,0.2045,-4.8218,-5.0049,-10.1929
596674,0.7432,0.1083,0.1941,1.9531,-10.8643,-10.1929
596694,0.6831,0.099,0.2045,5.4932,-16.7847,-7.8125
596714,0.6841,0.0857,0.2051,7.2632,-8.8501,-6.7749
596734,0.7227,0.0789,0.2045,7.7515,-4.8218,-6.3477
596754,0.7579,0.0658,0.2037,7.8735,-1.1597,-5.7983
596774,0.76,0.0449,0.2227,6.7139,3.1128,-3.3569
596794,0.8558,0.0305,0.2219,5.3711,6.3477,-2.9907
596814,0.9185,0.0332,0.2367,4.0894,6.5308,-2.7466
596834,0.9639,0.0359,0.2458,3.7842,4.6387,-2.9297
596854,1.0292,0.0648,0.2434,5.6763,6.4697,-2.9907
596874,1.0809,0.0905,0.2377,7.9346,4.8828,-2.9907
596894,1.0923,0.0911,0.2643,10.0098,1.5869,-2.8076
596914,1.1625,0.0698,0.3225,11.4136,0.7935,-3.2349
596934,1.3054,-0.0104,0.2711,9.8877,-2.5024,-3.7231
596958,1.0552,-0.0789,0.4923,8.3618,-6.7749,-7.019
596978,1.1915,-0.114,0.4857,4.2114,3.6011,-3.8452
596998,1.1484,-0.1337,0.4862,2.6855,8.9722,-0.4883
597021,0.9918,-0.1666,0.4703,1.5869,10.8032,0.7324
597041,1.0176,-0.1195,0.4503,4.6387,16.5405,0.061
597061,0.9974,-0.0785,0.4423,13.1226,7.3853,0
597081,0.9388,-0.0635,0.4094,18.7988,-0.5493,2.1973
597101,0.8773,-0.0627,0.3928,20.752,-1.8921,6.7749
597121,0.8792,-0.0864,0.3422,17.7002,0.4272,12.6953
597141,0.8856,-0.0941,0.3093,12.9395,2.5635,16.3574
597162,0.8481,-0.1096,0.2633,10.5591,-2.0142,16.2354
597182,0.8032,-0.0925,0.2489,7.4463,-4.6997,12.7563
597203,0.7671,-0.0957,0.2269,6.0425,-7.9956,11.2915
597223,0.7612,-0.0909,0.2168,0.7324,-5.188,9.5215
597243,0.7687,-0.0969,0.224,-1.1597,-8.667,7.8125
597264,0.7607,-0.088,0.2098,-1.2817,-13.3667,5.3101
597284,0.7401,-0.0803,0.2007,-3.6011,-14.6484,4.3945
597305,0.7332,-0.085,0.2087,-5.7373,-12.4512,4.0283
597328,0.7253,-0.076,0.2214,-7.9956,-7.6904,4.6387
597348,0.7642,-0.0612,0.2255,-7.6904,-6.897,5.188
597368,0.803,-0.0565,0.2565,-8.4229,-7.0801,5.7373
597388,0.8754,-0.0642,0.2775,-7.7515,-4.6387,5.0659
597409,0.9136,-0.0573,0.2747,-6.2256,-5.9814,3.1738
597429,0.9288,-0.0574,0.2971,-7.3853,-4.1504,2.5635
597449,1.0028,-0.0602,0.2897,-11.1084,-1.5869,4.3335
597470,1.0724,-0.0453,0.2649,-11.9019,-2.7466,5.4932
597490,1.0371,-0.0197,0.297,-13.0615,0.9766,6.1646
597510,1.1429,-0.0077,0.3651,-16.2964,14.5264,8.9111
597530,1.275,0.0424,0.344,-17.7002,15.564,14.1602
597550,1.0358,0.0571,0.5,-15.1978,2.0142,10.8032
597570,1.1466,0.0847,0.4718,-14.7095,3.7231,7.2021
597590,0.9954,0.1395,0.5115,-11.5356,2.9907,3.418
597610,0.9524,0.2087,0.5291,-6.7139,9.9487,-1.2817
597630,1.0447,0.2162,0.5249,-11.8408,15.0757,-0.2441
597654,0.9503,0.1146,0.4612,-15.0146,4.6387,0.5493
597674,0.9197,0.1031,0.4471,-15.1978,10.376,-8.1787
597694,0.9512,0.1313,0.3955,-12.6953,10.3149,-12.6343
597715,0.9762,0.1294,0.3334,-8.7891,5.3711,-14.2212
597735,0.8735,0.1184,0.2708,-6.2256,0.1221,-11.9629
597755,0.8158,0.0938,0.251,-7.1411,3.1738,-10.2539
597775,0.8005,0.0824,0.2352,-6.1646,-2.7466,-11.4746
597798,0.8031,0.0938,0.2131,-1.8311,-8.7891,-11.7798
597838,0.7261,0.1018,0.2118,3.1738,-11.3525,-8.606
597858,0.6929,0.0934,0.1904,6.1646,-13.4888,-5.0049
597878,0.6719,0.0779,0.198,7.2632,-12.0239,-4.3945
597898,0.7253,0.0491,0.1918,8.606,-11.0474,-5.0659
597919,0.7629,0.0427,0.2101,8.3008,-7.5073,-5.6152
597939,0.7439,0.0437,0.2355,6.5918,-5.5542,-4.7607
597959,0.7964,0.0245,0.2616,2.6855,-0.1221,-4.6997
597979,0.8486,0.032,0.2526,0.9155,3.418,-5.127
597999,0.9993,0.0549,0.2628,-0.9155,3.2349,-4.0283
598019,1.0609,0.0674,0.2853,0.7324,0.6714,-5.0049
598039,1.0946,0.0813,0.2832,4.4556,-3.479,-5.6763
598059,1.0624,0.0682,0.278,6.2866,-5.188,-5.249
598079,1.1074,0.0798,0.3573,9.2163,-4.6387,-5.9814
598099,1.3336,0.0651,0.2773,11.2915,-1.0986,-5.127
598120,1.0452,-0.0265,0.4701,11.3525,-9.4604,-5.7983
598140,1.168,-0.0712,0.5071,8.3008,4.3945,-2.3193
598160,1.1831,-0.1256,0.5223,5.9204,8.728,2.3193
598180,0.9552,-0.1978,0.5182,5.7983,11.9629,3.54
598200,0.9426,-0.1714,0.4888,6.2256,18.3716,5.0659
598220,0.9735,-0.0721,0.4635,15.0146,15.564,6.1646
598240,0.9648,-0.0496,0.4303,19.8364,11.4746,7.2632
598264,0.8707,-0.0756,0.377,23.6816,0.1831,10.0708
598284,0.8739,-0.0974,0.3619,21.3013,10.5591,12.9395
598304,0.9175,-0.1101,0.3236,19.9585,8.0566,14.7705
598326,0.8536,-0.1174,0.27,18.3716,3.8452,15.2588
598346,0.8163,-0.1053,0.2498,12.9395,-1.8311,15.5029
598367,0.8049,-0.1017,0.2205,11.0474,-6.2866,12.4512
598387,0.7561,-0.105,0.2228,6.1035,-9.8267,10.0708
598407,0.7468,-0.0946,0.2166,3.7231,-12.4512,9.0332
598427,0.7488,-0.0923,0.2173,1.4648,-13.6108,6.2866
598467,0.7418,-0.0782,0.2112,-2.3193,-18.4937,5.7983
598489,0.7494,-0.0814,0.2336,-4.4556,-15.3809,4.3335
598509,0.7516,-0.094,0.2416,-5.8594,-12.5732,2.0752
598529,0.7582,-0.104,0.2618,-7.6904,-11.5967,0.1831
598550,0.7881,-0.0958,0.2753,-9.6436,-7.9956,-0.6104
598570,0.8621,-0.0767,0.2858,-9.5215,1.8311,0
598592,0.9373,-0.0321,0.2935,-7.9956,3.1738,1.6479
598612,0.9697,-0.0262,0.298,-8.7891,3.6621,4.4556
598632,1.0742,-0.0188,0.2819,-10.8643,4.8218,7.3242
598652,1.1143,-0.0052,0.2778,-12.8174,3.6011,8.8501
598672,1.1687,-0.0171,0.3485,-18.1274,7.019,10.8032
598692,1.3373,0.0291,0.3279,-18.5547,8.1177,12.3901
598712,1.1167,0.0656,0.4653,-16.1743,-4.3335,5.0049
598732,1.1442,0.0905,0.499,-14.6484,-1.709,2.5635
598752,1.0621,0.1129,0.5358,-14.5874,2.3193,-0.1221
598772,0.9971,0.172,0.5428,-11.7798,2.9907,-2.7466
598794,0.953,0.1959,0.4836,-13.6719,2.8687,-2.9297
598814,0.9785,0.141,0.473,-21.4844,4.7607,-2.8076
598834,0.9585,0.1166,0.441,-21.3623,3.9673,-6.897
598854,0.8947,0.1243,0.3973,-18.5547,2.4414,-13.4888
598877,0.9243,0.142,0.3508,-13.2446,2.0752,-19.8975
598897,0.9043,0.13,0.3318,-10.498,-0.2441,-19.4702
598918,0.7845,0.0845,0.2924,-10.8643,-1.0986,-18.3716
598938,0.7479,0.0635,0.2812,-12.4512,1.0986,-15.2588
598958,0.7244,0.0704,0.2544,-10.9863,-0.9155,-14.0381
598980,0.712,0.0754,0.2429,-10.2539,-1.0986,-13.2446
599000,0.701,0.0953,0.2349,-8.3008,-0.7324,-10.7422
599020,0.7023,0.1125,0.2197,-4.5776,-5.3711,-10.437
599040,0.6932,0.1161,0.2222,-0.3052,-11.5967,-7.0801
599062,0.7371,0.1074,0.2278,0.4883,-8.5449,-6.1646
599086,0.7743,0.0985,0.2408,1.1597,-3.7842,-4.1504
599106,0.7882,0.0986,0.2643,0.4883,1.4648,-4.3945
599126,0.8202,0.0997,0.2701,1.5259,0.2441,-5.6763
599146,0.8674,0.098,0.2516,2.1362,1.4038,-5.127
599166,0.9011,0.0923,0.28,-1.0986,6.3477,-3.6011
599186,1.0782,0.0978,0.2545,-2.0752,5.7983,-2.7466
599209,1.0692,0.057,0.2719,-1.2817,-0.7324,-3.7231
599229,1.0514,0.0399,0.2892,1.3428,-1.8921,-7.7515
599250,1.272,0.0544,0.3228,2.0752,-0.3662,-10.0708
599270,1.3612,0.0272,0.3043,0.6714,-3.7842,-11.9629
599290,1.1196,-0.0458,0.458,-1.709,-4.6997,-12.4512
599310,1.2126,-0.0812,0.5005,-2.0142,4.6387,-8.9722
599330,1.101,-0.1399,0.5201,-3.6621,3.8452,-5.7373
599350,0.9845,-0.1888,0.5222,-6.897,8.728,-2.2583
599372,1.0237,-0.166,0.5341,-5.0049,14.7705,-0.4883
599392,1.0656,-0.1089,0.5397,6.897,0.3052,-0.3662
599412,0.9445,-0.1077,0.4788,11.1694,-9.5215,-0.2441
599432,0.8645,-0.0957,0.4202,7.9956,4.8218,2.5024
599452,0.8807,-0.0806,0.3802,5.9204,9.1553,3.1128
599474,0.8608,-0.0697,0.3258,3.0518,9.4604,3.418
599494,0.7479,-0.0612,0.2825,-2.3193,5.7983,5.0659
599514,0.7028,-0.0773,0.228,-3.2959,-0.8545,7.5684
599534,0.6935,-0.0975,0.2203,-4.6387,-2.9907,7.4463
599554,0.7035,-0.1399,0.2123,-8.1787,-3.8452,6.1646
599574,0.7219,-0.1174,0.1975,-12.9395,-3.2349,3.7842
599594,0.7819,-0.0878,0.2303,-15.9302,-6.4697,2.0752
599614,0.7695,-0.0681,0.2426,-14.0381,-10.3149,-1.709
599634,0.7753,-0.0544,0.2219,-14.4043,-9.3384,-2.8687
599654,0.7827,-0.0491,0.2588,-14.5874,-10.3149,-2.5024
599674,0.7726,-0.0551,0.2502,-15.1978,-7.3853,-2.5024
599694,0.782,-0.0482,0.2675,-13.6108,-3.7842,-2.7466
599714,0.814,-0.0402,0.2659,-12.207,-2.7466,-1.9531
599737,0.9022,-0.054,0.2726,-8.1177,-0.4272,-0.1831
599760,0.9725,-0.0681,0.2822,-8.3618,4.3945,2.8076
599780,1.0476,-0.0929,0.2687,-10.2539,4.8828,5.9204
599800,1.0999,-0.0823,0.2693,-12.207,3.6011,9.2163
599820,1.0721,-0.0624,0.2772,-15.5029,2.6855,10.5591
599843,1.2084,-0.0721,0.3247,-18.0054,7.6294,10.7422
599863,1.277,-0.0352,0.3694,-14.2212,1.0986,10.1929
599883,1.1202,0.0155,0.5031,-12.6343,-9.8267,6.897
599906,1.0962,0.0781,0.5328,-10.0708,-7.5684,7.6904
599926,0.9606,0.1284,0.5822,-5.3711,-1.8921,5.5542
599946,0.8729,0.1781,0.5415,-4.6387,6.958,6.4697
599966,0.8921,0.1448,0.5255,-13.5498,6.897,7.5684
599986,0.9503,0.0646,0.483,-18.7378,5.9814,5.5542
600006,0.9194,0.0703,0.4763,-19.2261,6.5918,-0.4272
600026,0.9189,0.1193,0.4445,-12.5732,7.6904,-9.0942
600046,0.941,0.1626,0.3965,-6.6528,7.1411,-11.5967
600066,0.9065,0.1642,0.3639,0,0.5493,-11.4136
600087,0.8191,0.1372,0.3088,5.6763,2.8076,-7.3853
600108,0.8075,0.1218,0.2817,5.188,7.6904,-3.8452
600128,0.7957,0.0889,0.2458,8.2397,2.7466,0.7935
600148,0.7789,0.0704,0.243,10.2539,0,3.1128
600172,0.7565,0.0652,0.2288,15.3809,-4.3945,4.6997
600192,0.736,0.0459,0.2101,20.5688,-14.8926,3.9673
600214,0.7054,0.035,0.2263,20.874,-14.8926,6.0425
600234,0.7256,0.0408,0.2411,20.6299,-14.5264,6.897
600254,0.733,0.0439,0.2775,20.9351,-16.0522,6.958
600275,0.7612,0.0513,0.2701,19.104,-7.8735,7.019
600295,0.8341,0.0773,0.2996,16.0522,2.5635,4.0894
600315,0.8459,0.0865,0.2931,15.3198,6.1646,3.1128
600335,0.8726,0.0771,0.2939,12.9395,9.5825,2.2583
600356,0.9774,0.0785,0.2799,11.7188,10.3149,1.3428
600376,1.0464,0.0651,0.2737,12.3291,5.7983,-0.7324
600396,1.0575,0.0549,0.2607,11.9629,5.4321,-2.2583
600416,1.0179,0.0667,0.3052,14.5874,6.3477,-6.1646
600438,1.2334,0.0959,0.3116,17.1509,11.4136,-5.9814
600458,1.1656,0.0073,0.3259,16.3574,4.0894,-4.8828
600478,1.0184,-0.0331,0.5273,12.6953,11.7798,-3.2349
600498,1.1482,-0.0732,0.4808,13.6719,14.0991,-0.7935
600518,1.063,-0.1558,0.4948,12.207,10.6201,1.709
600538,0.985,-0.1799,0.472,10.0098,19.8975,2.6855
600558,1.0404,-0.1044,0.4645,14.5264,21.1792,4.0894
600578,1.0553,-0.0563,0.4384,24.6582,5.9814,7.8125
600598,0.9945,-0.0638,0.4142,26.7944,-1.5869,8.7891
600618,0.9252,-0.0823,0.3811,26.2451,8.7891,11.7798
600638,0.9656,-0.0933,0.344,21.2402,14.4043,11.9629
600662,0.9545,-0.1049,0.2799,17.8833,12.146,13.6719
600682,0.885,-0.1024,0.2643,15.686,7.5073,12.8174
600702,0.8352,-0.108,0.2437,15.0146,-1.5869,12.8784
600722,0.781,-0.1112,0.2463,11.6577,-6.4697,11.7188
600742,0.775,-0.1003,0.2296,10.0098,-8.9111,11.2915
600762,0.7612,-0.1091,0.2279,8.606,-14.3433,9.1553
600784,0.7467,-0.0981,0.2288,6.5918,-16.2964,6.5308
600804,0.751,-0.0959,0.234,4.2114,-16.9678,4.4556
600828,0.7245,-0.1194,0.2485,2.0752,-13.0615,4.4556
600848,0.7173,-0.1221,0.2751,-0.5493,-10.8643,4.3335
600868,0.7235,-0.132,0.2869,-2.3193,-9.9487,5.249
600888,0.8164,-0.1345,0.3009,-3.6621,-5.7373,5.6763
600908,0.8662,-0.1167,0.3108,-3.54,-4.4556,5.0659
600928,0.9045,-0.0983,0.319,-3.9673,-1.0986,5.0049
600948,0.9686,-0.0963,0.326,-8.9111,4.8218,7.6294
600968,1.0144,-0.0914,0.3073,-12.146,2.6855,8.7891
600988,1.032,-0.0708,0.303,-14.8315,-2.0752,10.6812
601012,1.0387,-0.0472,0.3163,-17.334,0.9766,11.4136
601032,1.2253,0.0066,0.3146,-16.9067,4.6387,13.0615
601053,1.0769,0.0426,0.3763,-10.8032,3.9062,14.8926
601074,1.0873,0.1158,0.406,-10.498,10.8032,12.207
601094,1.0814,0.1243,0.4326,-5.4932,11.5967,11.2915
601114,1.0076,0.1759,0.4656,-1.2207,10.8032,10.8032
601135,0.9523,0.2114,0.4506,4.2725,10.8643,10.9253
601155,0.9182,0.1926,0.4497,5.188,13.3667,9.9487
601175,0.9679,0.1125,0.3877,1.0986,11.4136,5.7373
601196,0.9086,0.1002,0.4305,0,1.2817,-0.2441
601216,0.8788,0.1423,0.4,1.3428,-5.0049,-6.5918
601236,0.9076,0.1709,0.4329,4.2114,-5.3711,-7.5073
601256,0.9049,0.155,0.3718,9.8877,-9.2773,-8.1177
601276,0.875,0.1594,0.3524,12.2681,-3.6621,-6.7139
601297,0.8578,0.1521,0.3208,13.916,-1.8311,-2.9907
601317,0.8181,0.1295,0.3331,14.7705,4.3335,-1.8311
601337,0.8062,0.1246,0.3163,19.043,3.7231,-0.7324
601357,0.7831,0.104,0.2727,25.6348,-1.4648,1.8921
601377,0.771,0.0787,0.2585,26.3062,2.5024,3.1128
601397,0.7744,0.0491,0.2483,25.8179,6.1035,5.249
601420,0.8274,0.0275,0.214,26.4893,-1.5259,6.3477
601440,0.8109,0.0349,0.2227,26.7944,-9.2773,6.5918
601460,0.8254,0.0426,0.2203,25.8789,-7.9346,6.1646
601480,0.8398,0.0576,0.2455,25.5127,-6.1646,5.127
601500,0.8785,0.0433,0.2277,25.3906,-2.1973,4.8218
601520,0.8992,0.036,0.2103,23.9868,3.9062,2.2583
601540,0.9276,0.0541,0.2133,23.3154,6.2866,2.1362
601563,0.942,0.0616,0.235,23.6816,4.1504,3.1738
601583,0.9821,0.0715,0.2303,26.4893,0.7324,4.2114
601603,0.9984,0.0668,0.2468,28.8086,-1.3428,4.6387
601623,1.0082,0.0533,0.2396,28.3813,-2.8687,4.3335
601645,0.9946,0.0242,0.2423,26.6113,-2.5635,2.8076
601665,0.9722,0.0198,0.2457,24.7803,-1.3428,-1.8311
601686,1.0995,0.0448,0.2958,25.0854,3.54,-3.6621
601706,1.1387,0.0132,0.2317,28.8086,-0.061,-4.3945
601730,0.9501,-0.0035,0.3243,25.8179,5.7983,-4.0283
601750,1.0554,0.0305,0.3923,27.8931,7.5073,0.061
601770,1.0887,-0.0111,0.4364,26.4893,5.4321,6.7749
601790,1.0663,-0.0762,0.4469,24.9023,5.3711,9.0942
601810,1.0051,-0.145,0.4645,25.2686,8.5449,9.5215
601830,1.0734,-0.1196,0.4392,26.4893,8.7891,9.8267
601852,1.0227,-0.0696,0.433,34.729,0.7324,10.9253
601872,0.9329,-0.0533,0.4127,40.4053,-2.9907,11.1084
601892,0.8716,-0.0853,0.3524,40.7104,-0.4883,11.8408
601912,0.8779,-0.1174,0.3955,40.3442,0.9155,13.4277
601934,0.9558,-0.1152,0.3367,39.3677,-2.1362,16.5405
601954,0.8547,-0.1102,0.3384,39.856,-7.3853,18.7378
601974,0.8085,-0.1095,0.3193,37.6587,-8.8501,20.3857
601994,0.7936,-0.1151,0.2903,35.5225,-2.8687,18.4937
602014,0.7981,-0.1111,0.2972,32.8369,-2.4414,18.1885
602034,0.7994,-0.1346,0.2657,28.8086,-5.249,15.625
602054,0.8014,-0.1287,0.2524,27.4048,-6.6528,12.8174
602074,0.7723,-0.1251,0.2513,24.5972,-5.127,9.8877
602094,0.7833,-0.1163,0.2413,21.2402,-2.1973,8.7891
602114,0.7794,-0.126,0.262,19.4702,-1.77,7.9956
602134,0.7596,-0.1694,0.2859,17.334,-4.3945,9.7046
602154,0.7671,-0.2053,0.2944,11.7798,-3.1128,9.0942
602174,0.8125,-0.2162,0.304,8.3618,-0.4272,8.3008
602194,0.8495,-0.173,0.3016,6.1646,5.4932,6.4087
602214,0.8838,-0.1265,0.3121,7.6294,9.5825,5.127
602234,0.9388,-0.0828,0.2877,8.1177,7.2632,8.3008
602254,0.9817,-0.0807,0.2793,5.3711,4.8218,12.146
602276,1.0226,-0.0499,0.2618,2.0752,3.54,13.1226
602296,1.01,-0.0447,0.2705,-2.2583,6.2866,14.3433
602316,1.0509,-0.0417,0.2789,-5.3711,9.0942,17.7612
602337,1.1508,-0.0195,0.3011,-5.188,9.8267,20.5078
602357,1.0603,-0.0219,0.3882,-4.8828,10.1929,15.8081
602377,1.1305,-0.0079,0.4071,-5.3711,11.7798,12.146
602397,1.1259,0.0133,0.4768,-4.3335,10.8643,8.9111
602417,0.9988,0.1169,0.5073,2.1973,4.2725,6.4697
602437,0.8793,0.1462,0.5167,8.2397,8.9722,7.6294
602457,0.8785,0.1395,0.4373,8.4229,10.6812,8.1177
602477,0.9172,0.1367,0.4445,5.5542,9.1553,8.7891
602497,0.8895,0.0894,0.4055,6.1035,2.1973,6.7139
602517,0.8798,0.0891,0.4032,8.4229,-0.061,2.5635
602537,0.8932,0.1241,0.4043,12.146,2.8076,-1.0986
602557,0.9381,0.1337,0.3738,16.0522,0.9766,-0.6104
602577,0.9081,0.14,0.3335,22.0947,0.1221,1.0376
602597,0.8951,0.1471,0.3333,24.9634,2.7466,4.3945
602617,0.8868,0.1489,0.312,32.0435,2.1362,7.2632
602637,0.8962,0.1615,0.2883,37.2314,1.77,11.8408
602658,0.9001,0.1425,0.301,44.9829,-6.5308,15.9912
602678,0.8341,0.1088,0.2933,49.6826,-12.085,17.7612
602698,0.813,0.0928,0.2911,53.7109,-3.1738,19.4702
602718,0.8473,0.0802,0.2681,55.542,0.3662,19.8364
602739,0.8894,0.0725,0.2566,58.0444,-1.4648,19.5312
602759,0.8785,0.0636,0.2506,59.9976,-0.7324,19.7754
602779,0.9291,0.0717,0.261,60.6079,2.5024,20.0806
602802,0.9358,0.0493,0.2595,61.8896,-0.1831,20.813
602826,0.9012,0.0295,0.2631,63.3545,-4.3945,20.3857
602846,0.8636,0.0176,0.2538,63.4766,-0.1831,18.7378
602868,0.8335,0.0205,0.2838,60.791,2.7466,19.165
602888,0.8821,0.031,0.2639,63.4766,0.7324,17.8833
602908,0.9211,0.0468,0.277,64.3311,0.1221,16.4795
602928,0.9346,0.04,0.2726,64.27,0.5493,17.334
602949,0.9272,0.0194,0.2676,63.7207,0.7935,17.6392
602969,0.9128,0.0229,0.2568,64.3311,0.9155,16.6626
602989,0.9019,0.036,0.2494,66.8335,5.127,13.6108
603010,0.9182,0.0857,0.2322,69.0918,6.4087,12.4512
603030,0.9822,0.0559,0.2233,70.1294,6.2256,14.7095
603050,0.9587,0.0251,0.2635,70.0073,9.4604,15.9912
603070,1.0873,0.0172,0.2773,68.6646,8.8501,17.6392
603090,1.1743,-0.0001,0.333,67.2607,2.3193,21.3623
603110,1.1556,-0.0614,0.3396,65.7959,-1.709,21.9727
603134,1.042,-0.1564,0.3492,64.4531,2.4414,17.8223
603154,0.9989,-0.1699,0.344,65.5518,7.019,13.855
603175,0.9825,-0.1685,0.3397,66.9556,10.0098,10.6812
603195,0.9124,-0.152,0.3622,69.2139,4.3945,11.4136
603215,0.9501,-0.1559,0.3564,69.1528,-4.5776,15.625
603238,0.8944,-0.1624,0.364,67.4438,-11.1694,18.3716
603258,0.8584,-0.1373,0.371,67.8101,-10.0098,23.8647
603278,0.8876,-0.113,0.3605,69.5801,-8.9111,28.5034
603302,0.9712,-0.115,0.3402,70.6787,-7.6294,31.9214
603322,0.9436,-0.1061,0.316,70.6787,-9.4604,32.2266
603342,0.8724,-0.1268,0.3085,70.6787,-10.0098,30.8228
603364,0.8337,-0.1392,0.291,72.3877,-3.2349,29.2969
603385,0.829,-0.141,0.2906,74.9512,-2.3193,29.8462
603405,0.8118,-0.1648,0.2681,76.4771,-4.5776,31.25
603425,0.8004,-0.1851,0.2589,76.5381,-4.4556,33.2642
603445,0.8019,-0.2009,0.2643,74.646,-5.7983,34.5459
603465,0.8436,-0.2273,0.2826,70.7397,-8.4839,33.2031
603507,0.8606,-0.2391,0.3235,61.4624,-8.5449,29.9683
603527,0.8479,-0.2333,0.3314,55.7251,-5.4321,27.8931
603547,0.8723,-0.233,0.3182,52.8564,-3.418,26.6724
603571,0.8857,-0.213,0.3,49.4385,-1.3428,27.9541
603591,0.9358,-0.1871,0.2839,47.5464,-0.6104,29.7852
603611,0.9888,-0.166,0.2821,47.6685,-3.0518,30.5786
603631,1.0377,-0.1599,0.3098,46.5088,-6.6528,29.9683
603651,1.028,-0.1584,0.2849,45.7153,-9.3384,30.2124
603671,0.9773,-0.1334,0.3159,42.6636,-11.9019,29.9683
603691,0.9709,-0.11,0.3147,41.0767,-12.146,30.2124
603714,0.9252,-0.1155,0.3545,38.3301,-10.9253,31.5552
603734,0.9547,-0.1158,0.3529,34.1797,2.5635,34.3628
603754,0.9592,-0.1057,0.3656,34.3628,9.9487,34.3628
603776,0.8854,-0.1333,0.41,33.8745,11.0474,31.0059
603796,0.9238,-0.106,0.4371,35.0952,23.1323,26.9775
603816,1.0037,-0.0555,0.4915,37.4146,24.9634,23.6206
603836,1.0365,0.0223,0.5079,41.626,21.6675,21.7285
603856,0.9995,0.1079,0.5104,49.6216,19.5312,20.2637
603876,0.9213,0.1461,0.488,55.6641,19.8975,21.1182
603896,0.9158,0.1603,0.4512,54.8706,20.5078,22.4609
603916,0.8864,0.1145,0.432,52.3682,15.7471,24.8413
603939,0.8191,0.0593,0.4286,48.0957,4.3945,28.4424
603959,0.8221,0.047,0.4047,46.3257,-0.2441,26.8555
603979,0.8053,0.0756,0.452,50.7812,-0.6104,20.3247
603999,0.8351,0.132,0.4456,60.0586,5.0659,15.625
604019,0.8687,0.1624,0.417,64.3311,8.3618,15.9912
604039,0.8878,0.1614,0.3868,66.5283,14.7095,16.6626
604059,0.9023,0.1337,0.3497,70.2515,15.5029,20.4468
604079,0.8925,0.1008,0.301,73.1812,14.0381,22.7661
604099,0.9095,0.1044,0.2626,76.355,9.0942,29.541
604119,0.9121,0.0914,0.2461,80.5054,8.4229,31.25
604139,0.9338,0.0488,0.2283,84.1675,5.4321,31.9824
604159,0.9194,0.0323,0.2262,87.4634,1.0986,32.6538
604181,0.9381,0.0138,0.215,88.4399,-0.6714,33.4473
604201,0.9327,0.006,0.222,87.4634,-1.4648,34.0576
604221,0.9232,0.0092,0.2135,85.8765,0.061,33.9966
604244,0.9208,0.0133,0.2283,85.4492,-1.77,34.1797
604264,0.9293,0.0009,0.2202,84.1064,-5.4321,34.4238
604284,0.9246,-0.0187,0.2185,82.3364,-4.8828,32.1045
604304,0.9038,-0.0297,0.2261,79.895,-4.1504,30.9448
604327,0.9039,-0.019,0.2378,77.2095,-2.0142,26.2451
604347,0.8512,-0.0114,0.2759,75.9277,-1.8921,21.3013
604367,0.876,-0.0184,0.2585,73.3032,-1.4038,20.1416
604387,0.8702,-0.032,0.2766,69.2749,-1.8311,18.4937
604407,0.8954,-0.0414,0.2756,64.8193,1.4038,17.5781
604427,0.9222,-0.0422,0.2657,60.5469,1.4038,15.686
604447,0.95,-0.0343,0.2517,55.2979,1.77,12.3901
604467,0.9735,-0.0265,0.2397,52.7344,2.3804,6.6528
604487,1.0272,-0.0204,0.2825,51.6357,7.019,4.1504
604507,1.1788,-0.0179,0.2498,48.1567,7.6294,2.6245
604527,1.0217,-0.0317,0.3309,47.4854,1.4038,0.7935
604547,1.1095,-0.0244,0.4147,40.3442,8.2397,0.6104
604567,1.1511,-0.0741,0.448,40.2832,9.1553,4.3945
604587,1.1044,-0.1399,0.473,38.5132,8.3008,5.3711
604607,0.9642,-0.2102,0.4346,36.499,11.0474,5.8594
604627,0.8745,-0.2122,0.442,34.4238,18.7988,4.5166
604647,0.9155,-0.1952,0.4598,37.9639,19.6533,4.9438
604667,0.9689,-0.1666,0.4333,43.396,12.0239,6.958
604687,0.9213,-0.1707,0.4083,45.2271,1.9531,7.9346
604708,0.8344,-0.1924,0.3711,43.7012,2.1362,10.8643
604728,0.8292,-0.1824,0.3345,40.8325,6.5918,14.0991
604750,0.8851,-0.1893,0.2657,40.0391,10.7422,19.7754
604770,0.9103,-0.139,0.2531,41.3818,3.2959,21.3623
604790,0.8506,-0.1361,0.2365,42.3584,-4.5166,21.3013
604810,0.8405,-0.1418,0.2335,39.6118,-2.3193,19.4702
604830,0.8354,-0.1757,0.2166,36.9873,-2.1362,19.3481
604850,0.8459,-0.1917,0.2019,32.8369,-9.1553,20.3247
604870,0.833,-0.188,0.2045,30.3955,-12.3291,19.8364
604891,0.7706,-0.1708,0.2007,28.5645,-15.3198,16.4185
604911,0.775,-0.1466,0.1998,25.2686,-17.5171,17.0898
604931,0.8276,-0.144,0.2227,17.2119,-12.146,16.8457
604951,0.8516,-0.1561,0.203,12.6343,-7.019,16.8457
604971,0.8237,-0.1716,0.2275,9.0942,-7.6904,14.6484
604991,0.8445,-0.1748,0.2434,2.4414,-8.728,9.8267
605014,0.901,-0.1608,0.266,0.1221,-10.2539,6.2866
605034,0.9219,-0.1296,0.2841,-2.6855,-10.6201,4.7607
605054,0.9524,-0.1039,0.3024,-4.6387,-6.7139,3.9062
605074,1.0603,-0.0579,0.3064,-6.1035,-7.3242,3.9673
605094,1.0961,-0.0341,0.3041,-7.3242,-9.2163,5.3711
605114,1.0692,-0.0381,0.3005,-11.2305,-12.146,8.4229
605134,1.1532,-0.078,0.3706,-14.5264,-7.019,9.6436
605154,1.2517,-0.058,0.3397,-14.7705,-0.5493,9.2773
605177,0.9922,-0.0122,0.5264,-12.3901,-9.8877,4.3945
605217,1.1166,0.053,0.6385,-6.958,5.9814,3.8452
605237,0.8828,0.132,0.6328,-5.0049,5.9814,0.7324
605279,0.8351,0.1279,0.5393,-12.4512,17.395,0.1831
605299,0.8672,0.0969,0.5105,-14.4653,10.9253,-1.1597
605319,0.844,0.0669,0.434,-14.9536,8.1787,-3.9673
605359,0.8477,0.1219,0.382,-8.1787,9.7656,-13.3667
605379,0.8512,0.1289,0.3616,-5.249,2.8687,-12.8174
605399,0.8087,0.1127,0.3248,-4.2114,2.3804,-11.3525
605419,0.8021,0.0995,0.3184,-3.8452,1.2207,-11.5356
605439,0.837,0.0986,0.2955,-2.1362,0.9766,-10.437
605459,0.8207,0.0796,0.2836,0.4272,-0.7935,-8.4229
605479,0.7952,0.071,0.2664,2.2583,-4.3335,-7.6294
605499,0.759,0.0624,0.2609,3.9673,-7.6904,-7.6904
605519,0.7496,0.0481,0.2516,4.5776,-5.9204,-7.4463
605539,0.7531,0.042,0.251,5.249,-7.6294,-6.897
605559,0.7622,0.0416,0.2452,4.5166,-6.6528,-7.0801
605579,0.7628,0.0364,0.2478,0.3662,0.8545,-7.3853
605599,0.7775,0.0392,0.2686,-0.7935,6.5308,-8.1787
605619,0.8142,0.0615,0.2809,-2.0142,9.7656,-8.9722
605639,0.8794,0.0668,0.2863,-2.8076,11.5356,-8.9722
605659,0.9119,0.0583,0.3285,-3.1128,11.8408,-8.3008
605679,1.0021,0.059,0.2933,-0.5493,10.3149,-7.5684
605699,1.078,0.0544,0.3003,0.1831,9.3994,-8.1787
605719,1.1094,0.0295,0.2649,1.1597,5.7983,-11.1084
605739,1.0892,0.0419,0.3477,1.5869,5.3101,-13.9771
605759,1.2484,0.0547,0.3458,2.3193,6.5918,-15.1367
605782,1.1022,-0.0123,0.4169,2.4414,0.7324,-15.2588
605802,1.042,-0.0818,0.4916,-0.1221,10.2539,-12.3901
605822,1.1014,-0.1365,0.4894,-0.7935,16.5405,-4.3945
605842,1.0409,-0.2058,0.4769,-2.3193,17.6392,-1.5869
605862,0.96,-0.2417,0.4929,-5.7373,18.4326,-0.9766
605884,1.0197,-0.2059,0.4585,-0.7324,16.7847,0.3052
605904,1.0349,-0.1411,0.4374,2.8076,8.4839,1.4038
605924,0.9247,-0.1183,0.4052,6.4697,-5.5542,3.7842
605945,0.8622,-0.1058,0.3988,7.6904,-4.6387,6.4697
605965,0.9175,-0.1055,0.3474,5.5542,2.0142,8.4839
605985,0.9131,-0.0945,0.303,3.1128,5.3101,9.1553
606005,0.8142,-0.073,0.2986,4.9438,-0.7935,11.3525
606025,0.7512,-0.0996,0.2604,4.6387,-2.6855,10.7422
606045,0.7488,-0.109,0.2297,4.0283,-7.3242,11.6577
606065,0.7886,-0.1277,0.2291,1.0986,-9.0332,9.2773
606085,0.791,-0.1188,0.246,-0.1831,-11.9019,7.9346
606106,0.7832,-0.1261,0.2454,-2.1973,-17.7002,3.7231
606146,0.7639,-0.1256,0.2156,-2.9907,-23.3154,3.6011
606166,0.7642,-0.1245,0.2382,-5.7983,-15.8081,3.1128
606188,0.7428,-0.1245,0.2465,-9.2163,-11.9629,2.8076
606208,0.744,-0.1134,0.2637,-13.5498,-5.3101,3.8452
606228,0.8177,-0.1086,0.2863,-12.5122,-3.1738,3.54
606249,0.8937,-0.0968,0.3007,-10.5591,-0.6104,2.5024
606269,0.9347,-0.08,0.3141,-9.2773,2.4414,3.3569
606289,1.0352,-0.0797,0.3174,-11.0474,2.3804,5.3101
606309,1.069,-0.0642,0.3181,-15.3198,2.3193,7.3853
606329,1.0508,-0.0474,0.3179,-18.1274,3.54,7.8735
606349,1.1528,-0.0625,0.3802,-20.0195,4.0283,9.8877
606369,1.3291,-0.0367,0.3097,-16.3574,8.2397,11.3525
606389,1.1265,0.0253,0.5211,-15.2588,6.3477,7.019
606409,1.2155,0.0671,0.5764,-7.7515,-0.3662,5.127
606432,1.111,0.1257,0.5925,-4.5166,-5.8594,3.3569
606452,0.9083,0.1914,0.6361,-0.6104,-5.9814,3.2959
606472,0.7961,0.1915,0.545,-5.188,2.6245,5.9814
606492,0.8571,0.1094,0.5251,-14.8315,12.8174,5.7373
606512,0.8438,0.0447,0.488,-17.0288,13.5498,0.6714
606532,0.8164,0.0442,0.4507,-16.9067,14.8926,-6.4697
606552,0.8224,0.0514,0.4352,-13.7939,14.4043,-15.3809
606574,0.8317,0.0778,0.3481,-9.2773,11.5356,-16.7847
606634,0.8313,0.1063,0.2537,-6.3477,12.3901,-12.4512
606677,0.7949,0.0952,0.2112,-1.3428,-1.0376,-3.9673
606697,0.7566,0.0637,0.2067,0.7935,-1.4648,-3.3569
606717,0.7584,0.0664,0.2083,4.0283,-5.249,-3.1738
606737,0.738,0.0764,0.2167,9.7046,-9.8267,-3.2959
606757,0.7758,0.0615,0.2245,11.2915,-6.5308,-3.9062
606777,0.7758,0.0413,0.2189,10.376,-3.8452,-3.6011
606797,0.8143,0.0164,0.2451,6.0425,6.7749,-3.9673
606817,0.8497,0.035,0.2385,4.6387,11.6577,-3.1738
606837,0.8945,0.045,0.2416,3.6621,12.4512,-3.1128
606859,0.9758,0.0629,0.238,3.54,12.085,-2.6245
606899,1.1309,0.0297,0.2319,2.5635,2.9297,-2.4414
606919,1.0859,0.0084,0.2323,2.4414,-1.3428,-3.9673
606939,1.1599,0.0461,0.3242,4.1504,0,-8.606
606959,1.2772,0.0415,0.2955,6.1646,1.4038,-10.3149
606979,1.0216,-0.0161,0.413,3.3569,1.4648,-8.7891
606999,1.1707,-0.0452,0.4718,0.4272,14.6484,-2.5635
607021,1.123,-0.1633,0.4647,1.2207,11.0474,6.2256
607041,1.0471,-0.2423,0.4519,-4.2725,7.6294,8.8501
607063,1.0503,-0.2428,0.4657,-3.8452,7.5073,6.5918
607083,1.0831,-0.1798,0.4346,1.1597,1.9531,2.5635
607103,1.0005,-0.1213,0.4082,4.5776,-14.0991,-0.3662
607123,0.8832,-0.0833,0.3876,5.6763,-9.8267,2.9297
607143,0.9271,-0.0598,0.356,4.6387,1.3428,7.019
607163,0.9192,-0.0667,0.3241,5.3101,3.7842,7.2021
607186,0.8104,-0.0636,0.2872,4.9438,2.0142,8.1177
607206,0.7445,-0.057,0.2417,3.9062,-1.9531,12.085
607228,0.7394,-0.0413,0.223,1.709,-0.9766,15.8081
607248,0.7469,-0.0779,0.2247,0.6104,-8.606,16.7847
607268,0.7645,-0.0809,0.2164,0.4272,-13.7329,12.5122
607290,0.7064,-0.0841,0.2139,-1.3428,-18.7988,12.2681
607310,0.7313,-0.0607,0.2139,-2.9907,-10.0098,7.8735
607330,0.7549,-0.0565,0.2301,0.061,-13.3057,4.0894
607351,0.7581,-0.0406,0.2096,1.0376,-19.4702,5.0049
607371,0.7429,-0.0464,0.2252,-2.8687,-18.6768,4.6387
607391,0.7697,-0.0626,0.2571,-6.7139,-12.207,3.7231
607411,0.8865,-0.0627,0.2742,-6.4087,-2.1973,2.9297
607431,0.9216,-0.056,0.2893,-5.6763,0.7935,1.9531
607451,0.9677,-0.0565,0.2844,-3.0518,-1.8311,2.0142
607471,1.0155,-0.0616,0.3051,-7.019,5.6763,3.2349
607491,1.1451,-0.012,0.3147,-7.2021,7.3853,5.5542
607511,1.0898,0.0015,0.2953,-7.5073,6.1035,6.958
607531,1.093,-0.0203,0.3607,-14.2822,15.2588,12.2681
607553,1.3508,-0.0055,0.293,-11.7798,20.0806,15.8081
607573,1.1334,0.0248,0.4453,-8.3618,7.3853,8.3008
607593,1.1909,0.0342,0.4932,-8.4229,6.6528,5.3711
607613,1.1417,0.0458,0.4987,-6.897,-8.0566,1.8921
607633,0.9221,0.1516,0.5723,-7.9346,-7.019,-2.2583
607653,0.8812,0.1841,0.4814,-10.7422,4.3335,-3.1128
607675,0.9291,0.1327,0.5017,-20.752,8.0566,-3.0518
607695,0.9459,0.1071,0.4648,-22.0337,5.188,-7.9346
607715,0.8677,0.1254,0.4415,-19.4092,1.6479,-12.3291
607735,0.9504,0.1281,0.375,-15.5029,2.6855,-15.3809
607755,0.9412,0.1324,0.3373,-10.3149,-4.5776,-15.564
607775,0.8374,0.1194,0.3136,-10.7422,-2.6245,-15.9302
607796,0.7952,0.1215,0.2937,-7.4463,-4.6997,-17.1509
607816,0.7483,0.1057,0.2708,-3.2959,-8.667,-15.3198
607836,0.7325,0.0901,0.2526,-0.061,-4.5166,-13.1836
607856,0.7032,0.0785,0.2393,1.2817,-2.4414,-12.6953
607876,0.6989,0.1017,0.2339,3.7231,-4.2725,-10.9863
607896,0.6782,0.0726,0.1896,5.249,-4.7607,-8.0566
607920,0.6626,0.0248,0.2135,5.3101,-5.188,-3.1128
607940,0.7307,0.0216,0.2253,3.9062,-1.2817,-2.0142
607960,0.7937,0.0332,0.2461,3.1738,3.418,-2.3193
607980,0.8528,0.0502,0.239,2.1973,4.3945,-2.5024
608004,0.9381,0.0725,0.2599,1.77,7.1411,-2.3193
608024,0.9764,0.0585,0.257,4.3945,5.7373,-4.2725
608084,1.1035,0.0505,0.2339,5.6152,-0.8545,-3.3569
608104,1.0747,0.0543,0.3234,6.2256,-1.0376,-10.3149
608124,1.308,0.0758,0.2764,8.1787,6.8359,-11.1084
608144,1.1167,-0.0092,0.3149,7.0801,5.0659,-8.9111
608164,0.9982,-0.0581,0.5234,6.1646,14.4043,-7.9346
608184,1.2144,-0.1008,0.4968,11.2915,11.2305,-1.77
608204,1.0892,-0.1691,0.5226,7.2021,5.8594,3.8452
608226,0.9377,-0.2302,0.558,3.6621,6.4087,5.9814
608246,0.959,-0.1765,0.5331,9.4604,9.2773,7.2021
608266,1.0087,-0.1136,0.4718,19.2871,7.0801,8.0566
608306,0.8824,-0.0918,0.4017,24.292,-0.9766,12.8784
608326,0.9398,-0.0836,0.3212,21.8506,9.0942,16.6626
608346,0.9047,-0.0879,0.283,20.5078,8.3008,15.625
608366,0.8295,-0.0807,0.2605,18.7988,-1.2817,13.6719
608386,0.774,-0.0646,0.2101,14.4653,5.5542,15.564
608406,0.8055,-0.0837,0.1964,6.6528,1.6479,17.334
608426,0.7683,-0.1144,0.1804,7.3853,-5.9204,18.3105
608447,0.7411,-0.1006,0.194,8.1787,-15.1978,17.0898
608467,0.7563,-0.111,0.1946,4.9438,-25.2075,12.4512
608487,0.751,-0.1007,0.1827,0.3662,-24.292,8.3008
608507,0.7494,-0.0704,0.1973,-1.709,-22.9492,4.2725
608527,0.7225,-0.0825,0.2095,-3.8452,-24.7803,3.2349
608547,0.7573,-0.113,0.2007,-10.376,-15.686,0
608567,0.7734,-0.1146,0.2424,-16.5405,-9.8267,-0.061
608587,0.8889,-0.0896,0.2716,-16.5405,0.1831,2.6855
608607,0.9574,-0.0532,0.2825,-13.9771,1.3428,2.5024
608627,0.9846,-0.063,0.297,-12.3901,-1.2817,0.9766
608647,1.0619,-0.059,0.2965,-17.0898,2.1973,4.0283
608667,1.1301,-0.036,0.2949,-19.4092,2.3193,5.0659
608687,1.0903,-0.0413,0.3693,-22.8882,1.4648,5.0049
608707,1.3008,-0.0551,0.4047,-26.1841,8.1787,7.5073
608727,1.0953,0.0399,0.5551,-21.4844,4.0283,6.2256
608747,1.0573,0.0669,0.6255,-22.4609,4.5166,4.0894
608767,1.0638,0.0923,0.6167,-20.0195,12.5732,3.0518
608787,0.9493,0.1653,0.6447,-16.4795,14.6484,-0.5493
608807,0.8912,0.2126,0.5469,-16.4185,13.7939,-5.188
608827,0.9272,0.1914,0.5089,-21.0571,11.5967,-4.5776
608847,0.924,0.1366,0.4548,-24.4751,11.1084,-7.9956
608868,0.8823,0.1063,0.4178,-22.583,10.498,-12.9395
608888,0.9061,0.1057,0.3875,-20.0806,10.2539,-15.8691
608908,0.9121,0.1167,0.347,-16.1743,8.9722,-18.6768
608928,0.8186,0.1284,0.293,-13.0615,8.1787,-19.7144
608948,0.8052,0.1287,0.2557,-11.9629,10.9863,-17.5781
608971,0.8181,0.1344,0.2408,-8.8501,12.5732,-15.0146
608991,0.8115,0.1298,0.2073,-5.0659,8.2397,-11.4746
609011,0.7651,0.1133,0.1991,0.8545,3.1128,-8.606
609031,0.775,0.0927,0.1696,5.3711,-4.8828,-5.4321
609051,0.7336,0.0597,0.1631,10.1929,-8.9111,-2.9297
609071,0.7214,0.0415,0.1882,12.085,-8.3618,-2.7466
609091,0.7527,0.0482,0.1664,12.4512,-8.0566,-2.2583
609113,0.8097,0.0378,0.1859,14.7705,-8.9111,-1.709
609133,0.8599,0.0446,0.1796,16.6016,-9.7046,-1.6479
609153,0.8717,0.0104,0.2041,15.5029,-8.1787,-0.6104
609173,0.9081,0.0022,0.2216,13.7329,-3.2349,-0.3052
609193,0.9874,0.0122,0.2229,10.7422,2.5024,-0.061
609213,1.067,0.0411,0.2271,10.8643,-2.4414,-1.5259
609233,1.1027,0.0393,0.2266,12.0239,-9.5215,-2.1362
609253,1.0873,0.0482,0.2518,11.8408,-9.8877,-3.9062
609273,1.0298,0.0698,0.2798,14.7095,-7.0801,-7.3242
609296,1.2737,0.0873,0.3431,18.1885,6.0425,-8.2397
609316,1.1368,-0.0004,0.3254,18.3105,3.479,-7.6294
609336,1.0103,-0.0261,0.4858,18.3716,10.376,-7.5684
609356,1.0645,-0.0607,0.488,21.4844,14.1602,-2.3804
609376,1.0281,-0.1569,0.4808,16.1133,14.2822,1.6479
609396,1.0011,-0.2332,0.4761,12.6953,15.8691,3.418
609416,1.025,-0.2114,0.478,18.1885,10.9863,2.5024
609436,1.0487,-0.1731,0.4347,22.2168,-4.3945,1.2207
609456,0.9681,-0.1304,0.3834,21.9116,-5.5542,6.7749
609476,0.942,-0.1295,0.3868,18.9819,-2.1362,7.3853
609496,0.9315,-0.1049,0.327,18.9819,-3.9673,8.4839
609516,0.8397,-0.1168,0.2938,16.7847,-4.3945,8.667
609536,0.776,-0.1089,0.2732,13.7939,-3.54,9.2773
609556,0.7612,-0.1136,0.2509,9.8267,-2.2583,9.7046
609596,0.7513,-0.1321,0.2192,1.77,-3.54,8.1177
609616,0.7218,-0.1332,0.2034,1.709,-11.2915,6.4087
609636,0.724,-0.1381,0.1826,0,-10.9863,5.4321
609656,0.7181,-0.1228,0.1783,-0.6104,-14.8315,8.3008
609677,0.7407,-0.1262,0.1997,-5.9204,-14.7705,7.019
609697,0.7335,-0.1207,0.2384,-5.6152,-20.5078,6.2256
609717,0.7378,-0.1276,0.2408,-5.4932,-19.8975,6.4697
609737,0.7865,-0.1021,0.2919,-6.4697,-6.5918,4.7607
609757,0.9093,-0.0597,0.2859,-2.4414,-0.9155,4.0283
609777,0.9521,-0.0551,0.2657,-1.8311,0.5493,5.0659
609797,1.0237,-0.1193,0.2794,-6.0425,2.7466,8.0566
609817,1.0948,-0.1237,0.2642,-10.3149,3.7842,10.9863
609837,1.0872,-0.1005,0.2643,-13.4277,0.4272,11.1694
609857,1.1484,-0.1116,0.3512,-16.1133,6.7139,11.5356
609877,1.3885,-0.0587,0.3087,-14.8315,3.1738,13.7329
609897,1.1383,0.0208,0.4978,-8.606,-9.3384,10.1929
609917,1.1826,0.0286,0.5432,-13.855,-3.0518,7.9956
609937,1.1488,0.0718,0.564,-14.4653,-2.9297,6.4697
609957,0.9767,0.2006,0.6245,-12.7563,-8.1787,4.0283
609977,0.8883,0.1932,0.5387,-14.8926,-6.1035,4.0283
609997,0.8967,0.1134,0.5358,-22.644,9.5825,4.6997
610017,0.9313,0.0946,0.49,-24.4751,16.7236,-0.061
610037,0.9225,0.099,0.4707,-17.7612,2.8687,-8.9111
610057,0.8918,0.0983,0.4141,-12.5122,1.1597,-17.1509
610077,0.8684,0.1118,0.3894,-9.0942,2.1362,-18.7988
610097,0.7703,0.1233,0.3379,-7.5073,6.958,-16.1133
610117,0.7584,0.1121,0.3179,-6.7749,9.5215,-14.8315
610137,0.7347,0.1041,0.2776,-3.479,7.3242,-9.8877
610157,0.7443,0.1146,0.2507,-0.6714,6.6528,-6.1035
610178,0.7434,0.1029,0.2361,2.0752,3.8452,-2.9297
610198,0.7438,0.0868,0.21,7.5073,-1.0376,-2.8076
610218,0.6932,0.062,0.1997,10.437,-5.4321,-1.5259
610238,0.7131,0.0807,0.1938,10.3149,-3.7231,0.7324
610258,0.7507,0.0665,0.1949,11.2915,-3.8452,-1.709
610279,0.7551,0.0736,0.2137,12.2681,-1.4648,-1.2207
610299,0.8163,0.0706,0.2124,12.207,0.1221,0
610319,0.8485,0.0676,0.2375,11.5356,2.6855,1.3428
610339,0.9564,0.0505,0.2561,7.9956,5.0659,0.8545
610359,1.0284,0.0658,0.2648,6.2866,2.1362,-1.5869
610382,1.0702,0.0621,0.25,5.5542,-1.4648,-3.479
610402,1.1179,0.0321,0.2538,2.0142,-1.2817,-5.8594
610422,1.0627,0.0212,0.2567,1.0986,-1.0986,-12.146
610442,1.1173,0.0449,0.3407,1.1597,10.6201,-19.4092
610462,1.2964,0.0513,0.2681,2.0142,12.9395,-18.6768
610482,0.9906,-0.0284,0.511,0.1221,10.6201,-17.5171
610502,1.119,-0.0297,0.472,3.479,17.5781,-10.6812
610522,1.1006,-0.0671,0.5048,2.8687,17.4561,-4.3945
610542,1.0074,-0.1865,0.4844,1.2817,15.3809,-0.8545
610562,1.0156,-0.2039,0.5354,1.709,13.855,2.5024
610585,1.0605,-0.1532,0.4725,7.9346,7.4463,0.9155
610605,0.989,-0.1328,0.4153,8.5449,-1.4038,0.8545
610625,0.9362,-0.1179,0.3938,8.9722,0.7324,2.5024
610645,0.942,-0.0977,0.3601,8.3008,4.3335,4.2725
610665,0.9159,-0.092,0.2839,7.3853,4.3335,4.2114
610687,0.819,-0.0898,0.2554,5.5542,3.54,3.418
610707,0.7532,-0.0911,0.2266,2.6855,1.77,3.7842
610730,0.7769,-0.0999,0.2028,-1.5259,3.2959,4.3335
610750,0.788,-0.1006,0.1896,-0.9155,-2.2583,5.6763
610770,0.7632,-0.1086,0.1963,0.2441,-9.0332,5.4321
610793,0.7386,-0.1002,0.1801,0.061,-17.2729,4.1504
610813,0.7462,-0.1105,0.2029,-2.3193,-16.9067,4.9438
610833,0.7358,-0.1088,0.2141,-5.249,-15.0146,7.7515
610853,0.7502,-0.1238,0.2292,-6.958,-12.085,5.9204
610875,0.7549,-0.1321,0.2368,-8.1177,-12.3291,2.2583
610895,0.7948,-0.1042,0.2499,-10.0098,-4.4556,0.6104
610915,0.854,-0.0708,0.2664,-6.5918,-1.1597,0.7935
610935,0.9504,-0.0605,0.2488,-3.479,-1.0376,2.3804
610957,1.0262,-0.0999,0.2494,-6.6528,0.1221,4.8218
610977,1.0898,-0.0918,0.2561,-10.3149,-1.709,8.1177
610998,1.071,-0.063,0.2494,-11.6577,-2.3804,8.9111
611018,1.0432,-0.0837,0.2955,-13.6719,-0.7324,8.3618
611038,1.3324,-0.0488,0.299,-13.1226,8.1177,12.7563
611059,1.1555,0.0078,0.4103,-8.4839,-0.6104,11.9019
611079,1.1249,0.006,0.5131,-12.6343,-3.7231,7.6294
611099,1.2424,0.0118,0.5042,-17.7002,2.7466,8.1177
611119,1.0326,0.1254,0.5839,-12.2681,-7.3242,1.6479
611139,0.8854,0.1843,0.5198,-10.5591,-2.1973,2.2583
611159,0.8179,0.1461,0.553,-16.2354,4.5776,4.8828
611179,0.8832,0.1226,0.4843,-22.0947,14.9536,6.0425
611203,0.9133,0.0778,0.4484,-23.0103,8.728,-0.7324
611223,0.8964,0.0898,0.4252,-19.165,3.1738,-9.9487
611243,0.9352,0.1061,0.3411,-14.3433,7.2632,-11.5967
611267,0.8356,0.1168,0.2734,-11.5356,7.7515,-12.207
611287,0.8116,0.1183,0.2494,-11.8408,8.4839,-13.4888
611307,0.8234,0.1011,0.2141,-11.4136,5.9814,-11.8408
611327,0.8384,0.1155,0.194,-9.7046,2.6245,-8.606
611347,0.8029,0.1152,0.1987,-6.8359,-0.5493,-7.2632
611367,0.7867,0.1084,0.1858,0.9766,-9.4604,-5.5542
611387,0.7234,0.0974,0.2018,3.9062,-13.0005,-3.8452
611407,0.7395,0.1129,0.2153,6.5308,-14.3433,-0.5493
611427,0.7432,0.1066,0.2306,10.0708,-23.6816,1.2817
611447,0.7367,0.1104,0.2157,11.1084,-15.625,3.1128
611470,0.7295,0.0875,0.2598,10.1318,-7.019,3.6011
611490,0.8279,0.1016,0.2681,10.8643,4.8828,4.6387
611510,0.959,0.0988,0.2469,11.5967,5.8594,4.8828
611530,0.9586,0.0646,0.2284,11.9629,3.418,1.6479
611554,1.0073,0.0531,0.2258,10.8032,5.5542,-0.7324
611574,1.1315,0.0236,0.2064,6.3477,1.4038,-2.8687
611594,1.1011,0.0028,0.2067,3.2349,-6.2256,-9.8267
611614,1.0291,0.0417,0.259,3.3569,-3.8452,-13.3667
611634,1.2516,0.1088,0.2843,6.6528,2.0142,-12.9395
611654,1.1241,0.0679,0.3076,7.2632,4.8218,-9.7656
611674,1.0317,0.0262,0.4537,6.5918,8.7891,-9.8877
611694,1.1692,-0.0228,0.4785,6.958,8.8501,-5.0049
611715,1.106,-0.0909,0.5057,5.8594,6.6528,-1.2207
611735,0.9565,-0.2039,0.5208,6.5918,2.3193,1.6479
611755,0.9813,-0.1833,0.4937,9.2163,8.2397,2.6245
611775,1.0088,-0.1401,0.4716,16.5405,2.1362,3.3569
611795,0.9928,-0.1228,0.4272,17.1509,-4.2114,8.1787
611815,0.927,-0.1139,0.4053,16.4185,-5.8594,9.2773
611835,0.8937,-0.1019,0.3607,13.6719,-2.1362,10.1318
611856,0.8905,-0.1089,0.3232,11.4746,2.7466,9.2163
611876,0.8461,-0.1057,0.2926,7.5073,3.9062,6.4697
611896,0.7883,-0.0928,0.2528,7.019,1.2817,6.4087
611916,0.764,-0.0981,0.2347,6.1646,-3.1128,6.4087
611936,0.7604,-0.1073,0.2369,3.418,-7.8735,7.019
611957,0.7395,-0.1052,0.2614,2.8687,-10.437,6.2866
611977,0.724,-0.0935,0.2411,0.4272,-11.0474,5.4321
611997,0.7322,-0.0795,0.2267,-1.0986,-14.6484,6.7749
612017,0.7257,-0.0834,0.2118,-2.1362,-14.3433,6.3477
612037,0.7261,-0.1108,0.2207,-4.5776,-13.6108,4.2725
612057,0.7467,-0.1216,0.255,-7.8735,-9.7046,2.9907
612081,0.7931,-0.1095,0.2714,-8.9722,-9.3384,1.4038
612101,0.8497,-0.1105,0.2772,-10.2539,-5.4932,2.1973
612121,0.9293,-0.0829,0.2822,-9.6436,1.5259,2.2583
612143,0.9363,-0.0812,0.2954,-10.6812,3.1128,2.3193
612163,1.0466,-0.0674,0.2927,-14.4043,6.1035,3.2349
612183,1.1036,-0.0436,0.2859,-15.625,4.2725,4.3335
612203,1.0653,-0.0475,0.3209,-17.334,-0.061,7.0801
612225,1.2266,-0.0619,0.3855,-21.9116,8.3618,10.376
612246,1.1855,0.0182,0.4277,-16.2354,8.7891,11.9629
612266,1.1561,0.0562,0.5203,-15.0146,2.4414,5.9814
612286,1.1846,0.0659,0.5248,-16.2964,6.3477,3.1128
612306,1.0485,0.1311,0.5691,-14.6484,0.1831,-0.7324
612326,0.9318,0.1937,0.5667,-12.7563,-0.5493,-2.0752
612346,0.8098,0.1626,0.5302,-18.0054,10.8643,0.061
612368,0.8889,0.1295,0.4722,-23.0103,15.3809,0.061
612388,0.8917,0.0944,0.4308,-22.583,4.5776,-6.8359
612408,0.876,0.1042,0.4037,-21.1792,4.5166,-9.1553
612428,0.8729,0.129,0.3606,-14.2212,5.188,-13.4277
612451,0.884,0.1396,0.3325,-12.7563,8.667,-14.8926
612471,0.8611,0.1295,0.302,-11.1084,6.1035,-15.7471
612491,0.8224,0.1117,0.2988,-7.0801,-2.2583,-15.5029
612513,0.8027,0.1222,0.2739,-5.9814,0.061,-11.0474
612533,0.7643,0.1396,0.2622,-1.5259,-0.6714,-5.4932
612553,0.7349,0.1254,0.2379,3.1738,-3.2349,-4.8218
612593,0.7565,0.1028,0.2336,10.7422,-3.418,-1.6479
612613,0.7314,0.0746,0.199,12.7563,-4.3335,-4.3335
612633,0.7476,0.0758,0.2092,11.4136,-2.5024,-4.6997
612653,0.7517,0.0592,0.1976,10.2539,0.3052,-2.5024
612673,0.8047,0.0425,0.2341,9.5825,3.0518,-1.5259
612693,0.8752,0.0396,0.2437,9.3384,2.2583,-1.4648
612714,0.97,0.022,0.2512,4.6387,3.2959,-2.2583
612734,1.0181,0.0269,0.2465,1.1597,2.7466,-4.6997
612756,1.0919,0.05,0.2516,0.9155,1.0986,-7.6294
612776,1.1132,0.0535,0.2339,0.2441,-2.5024,-9.7656
612796,1.0463,0.0701,0.2574,1.8921,-2.5024,-13.3667
612816,1.1279,0.0879,0.3281,6.2256,4.3945,-14.8315
612836,1.2017,0.0786,0.2472,8.1177,8.1787,-12.6953
612856,0.9741,-0.0079,0.3905,4.8218,24.1699,-14.2822
612876,1.149,-0.0173,0.4271,6.1646,24.292,-7.6904
612896,1.0881,-0.1176,0.4078,9.5215,19.9585,-1.8921
612920,1.0189,-0.2241,0.4197,0.7935,14.7705,0.5493
612940,1.073,-0.2467,0.4452,3.0518,2.2583,1.1597
612960,1.0133,-0.1831,0.4209,6.5918,-7.6294,0.1831
612980,0.9762,-0.146,0.4238,7.2632,-11.0474,1.1597
613000,0.9146,-0.1199,0.4131,8.1787,-9.7046,3.1738
613020,0.8969,-0.0864,0.3883,9.2773,-3.0518,5.8594
613040,0.8929,-0.0886,0.3201,10.1318,-2.8076,6.1035
613060,0.8182,-0.1005,0.2726,6.897,-1.4038,7.8125
613080,0.7826,-0.1216,0.2672,3.6621,0.4883,8.728
613100,0.7797,-0.1095,0.2623,2.0142,0.5493,10.0708
613120,0.7906,-0.1023,0.2615,3.3569,-1.4648,8.2397
613143,0.8069,-0.0762,0.2334,3.9062,-7.9346,4.6997
613163,0.752,-0.0778,0.2441,2.5024,-16.8457,4.3945
613183,0.7383,-0.0914,0.2345,2.7466,-14.6484,6.1646
613203,0.7352,-0.108,0.2014,0.6104,-15.0146,7.0801
613224,0.7374,-0.109,0.2062,-6.1646,-8.8501,8.9722
613244,0.7751,-0.1276,0.2073,-11.1694,-7.2021,10.3149
613264,0.8036,-0.1091,0.2341,-13.7329,-4.6997,7.8735
613285,0.8584,-0.0878,0.2429,-14.9536,-1.3428,5.5542
613306,0.9446,-0.0652,0.2531,-11.9629,-2.0142,3.2349
613326,1.0105,-0.0519,0.248,-10.8643,-1.6479,2.6245
613346,1.041,-0.0625,0.2626,-15.7471,-0.5493,2.8687
613366,1.0593,-0.05,0.2557,-19.165,-2.9297,4.3335
613407,1.077,-0.0477,0.3387,-25.2686,-3.54,3.1738
613427,1.2634,-0.0231,0.3074,-23.4375,-0.061,6.1035
613447,1.1431,0.0215,0.3922,-18.0054,-5.8594,4.8218
613467,1.1737,0.0536,0.5062,-18.3105,-0.1831,2.8687
613490,1.1511,0.1232,0.5146,-17.7002,-3.2959,0.6714
613510,0.972,0.1915,0.5321,-15.564,-4.7607,-4.7607
613530,0.891,0.1788,0.4514,-18.7988,-1.3428,-3.7231
613550,0.8571,0.1376,0.5437,-24.231,3.2959,-2.7466
613570,0.8911,0.1198,0.4651,-27.2217,9.7046,-1.6479
613590,0.8795,0.11,0.4557,-24.7192,11.1084,-9.5215
613614,0.8892,0.1094,0.4077,-18.7378,2.2583,-14.2822
613634,0.8721,0.113,0.3522,-15.564,5.8594,-15.0757
613654,0.8413,0.1091,0.3203,-15.9912,11.1084,-15.8691
613674,0.8167,0.1017,0.288,-14.5264,10.1929,-17.334
613694,0.8085,0.109,0.2667,-11.7798,7.9346,-15.4419
613714,0.8096,0.116,0.246,-6.8359,7.019,-8.1787
613734,0.7549,0.1281,0.2236,-3.2959,1.2817,-4.4556
613754,0.7561,0.1027,0.2164,-0.1221,2.6245,-5.0659
613774,0.7136,0.0844,0.1752,5.7983,3.479,-4.5166
613794,0.7698,0.0796,0.2119,8.2397,-0.1831,-2.7466
613814,0.7911,0.0757,0.1979,12.5122,-3.2349,-1.8311
613834,0.8015,0.0677,0.2084,12.085,-1.3428,-1.709
613854,0.8301,0.08,0.2152,12.6953,1.5259,-0.061
613874,0.9105,0.0704,0.2351,14.9536,0.5493,1.8921
613894,0.9546,0.0679,0.2261,15.3809,0.9766,2.5635
613914,0.9659,0.0459,0.2388,15.1367,2.1362,1.8921
613934,1.0444,0.0337,0.2319,13.7329,1.0376,2.5024
613954,1.0984,0.0051,0.2177,11.5967,-0.1221,2.0142
613974,1.0691,-0.0048,0.2213,10.5591,-4.3335,-1.4648
613994,1.0476,0.0237,0.271,11.4746,-3.9673,-4.6387
614014,1.1428,0.052,0.297,12.146,1.6479,-5.7373
614034,1.0474,0.0361,0.2852,14.5874,2.2583,-5.0659
614054,1.0752,0.0284,0.3827,12.0239,13.3667,-3.9062
614075,1.146,-0.0002,0.4181,10.3149,15.686,0.061
614095,1.1567,-0.0438,0.4244,11.2305,12.207,4.9438
614115,0.9633,-0.124,0.4119,12.5122,6.2256,5.4932
614136,0.9474,-0.1389,0.4453,14.4653,9.1553,5.188
614156,1.031,-0.1027,0.392,21.8506,4.5166,7.3853
614179,0.9828,-0.0924,0.3989,29.6631,-1.8311,8.728
614200,0.87,-0.0841,0.3668,32.7148,-6.1035,13.6108
614220,0.8613,-0.1105,0.3529,32.7759,-4.6997,14.8315
614241,0.8937,-0.1245,0.2911,33.3862,-1.8311,16.3574
614261,0.838,-0.1361,0.254,32.959,-0.5493,16.3574
614281,0.8125,-0.13,0.2168,29.6631,3.1128,16.9067
614301,0.8254,-0.1233,0.2039,25.2686,1.8921,20.4468
614321,0.7883,-0.1417,0.1919,21.7285,-2.5024,21.9116
614341,0.799,-0.1361,0.1842,18.4937,-11.6577,19.165
614364,0.8042,-0.1378,0.2036,17.334,-15.3809,17.334
614384,0.8156,-0.1112,0.1982,12.5122,-15.686,13.6719
614404,0.7616,-0.1068,0.1931,11.5967,-17.7002,11.7798
614424,0.7261,-0.1187,0.1847,6.7749,-12.7563,10.8032
614444,0.762,-0.123,0.1562,3.7842,-7.2632,10.1929
614464,0.8022,-0.088,0.1741,1.5259,-5.9204,6.7749
614484,0.848,-0.0834,0.1797,0.6714,-8.9111,6.4697
614504,0.921,-0.0872,0.1907,0.3052,-8.7891,6.4697
614524,0.9888,-0.0878,0.1953,-1.6479,-8.3618,6.1646
614545,1.0286,-0.0815,0.2416,-3.479,-8.667,5.7983
614565,1.1008,-0.0885,0.2296,-9.9487,-5.9204,5.8594
614585,1.1082,-0.0636,0.262,-12.146,-6.5308,6.1646
614606,1.1069,-0.0553,0.2826,-12.3901,-9.2163,6.5918
614626,1.3499,-0.0372,0.3793,-14.0991,-2.3193,11.0474
614648,1.3865,0.0374,0.3516,-8.2397,-2.8687,12.3901
614668,1.2007,0.0957,0.5687,-8.4229,-12.6953,7.2021
614688,1.1471,0.1469,0.6224,-1.2817,-14.0381,7.0801
614708,0.9498,0.2096,0.6656,5.0049,-11.5967,6.4697
614731,0.7966,0.2197,0.5966,5.249,1.0376,5.4321
614751,0.825,0.1177,0.5647,-5.0049,11.1694,5.4932
614774,0.9126,0.067,0.4677,-8.3008,11.1084,-0.7935
614794,0.861,0.0468,0.4598,-6.5308,8.667,-8.9722
614814,0.8552,0.0677,0.4192,-3.418,11.7188,-15.1367
614834,0.865,0.0776,0.3843,-0.9155,13.916,-17.2729
614854,0.7881,0.0925,0.3232,-0.7324,15.7471,-14.8926
614874,0.767,0.0801,0.2897,-0.7935,15.5029,-13.916
614894,0.7776,0.0884,0.2437,-0.061,14.7705,-11.3525
614914,0.7987,0.0891,0.2469,1.1597,9.3994,-6.5308
614936,0.713,0.0538,0.2001,3.2959,5.4321,-5.9814
614956,0.7007,0.0563,0.1824,6.8359,-0.1831,-3.9062
614977,0.6844,0.0575,0.1788,8.7891,-2.1973,-2.4414
614997,0.6951,0.0583,0.1777,11.2915,-2.9907,-1.0986
615017,0.7394,0.052,0.1726,12.6953,-8.728,-1.3428
615040,0.7793,0.0332,0.1799,12.6953,-11.7798,-0.3662
615062,0.8434,0.0029,0.2157,8.4839,-4.5776,0
615082,0.9417,0.025,0.2174,7.7515,-1.4038,-0.7935
615102,1.0481,0.056,0.2396,9.8877,-2.6855,-3.3569
615122,1.0793,0.0664,0.2467,12.146,-6.0425,-8.1787
615144,1.1147,0.0544,0.2505,11.7188,-3.7231,-9.4604
615164,1.1122,0.036,0.2329,8.606,-0.3662,-10.437
615184,1.1116,0.0398,0.2874,5.9204,1.4648,-12.3291
615204,1.3372,0.0339,0.3522,6.7749,4.1504,-13.0615
615224,1.0398,-0.0552,0.5007,9.1553,-4.4556,-11.4136
615244,1.1293,-0.0903,0.5898,9.7046,7.0801,-8.9722
615264,1.1353,-0.1565,0.505,12.5122,7.5073,-3.7842
615284,0.944,-0.1761,0.5088,10.0098,5.7983,-3.479
615304,0.9034,-0.1289,0.5579,10.0098,8.9722,-4.7607
615325,1.0172,-0.0752,0.475,16.3574,11.6577,-0.3662
615345,1.0422,-0.0717,0.4111,25.1465,-3.2959,5.0049
615365,0.9307,-0.1014,0.4004,27.832,-4.4556,9.7046
615386,0.8711,-0.1321,0.3795,29.541,-0.4883,11.5356
615406,0.8735,-0.1337,0.3352,29.6631,-1.5869,13.9771
615426,0.7882,-0.1232,0.3138,26.7944,0.6714,14.4653
615446,0.791,-0.1259,0.2709,23.6206,3.8452,15.625
615466,0.7886,-0.1318,0.2356,18.9819,6.7749,17.395
615486,0.7736,-0.1368,0.2399,13.1836,0.7324,17.5781
615506,0.7428,-0.1683,0.2183,15.1978,-5.4932,15.2588
615526,0.7561,-0.1758,0.2001,10.376,-10.7422,13.855
615547,0.7142,-0.17,0.2061,6.2866,-13.0005,11.3525
615567,0.684,-0.1388,0.2136,2.1973,-11.9629,8.4229
615587,0.7104,-0.1414,0.2072,1.2207,-9.5215,8.606
615607,0.7404,-0.1481,0.2241,-1.4038,-8.4229,7.9956
615628,0.7838,-0.1349,0.2249,-4.5776,-6.3477,6.6528
615648,0.8206,-0.124,0.2351,-4.6997,-3.2349,5.7983
615668,0.8805,-0.0964,0.2389,-3.8452,-2.3804,5.8594
615688,0.9994,-0.0748,0.2588,-3.0518,-4.1504,6.4087
