timestamp,ax,ay,az,gx,gy,gz
1436942,0.8523,0.0599,0.4763,2.1973,-1.5259,0.0
1436965,0.8456,0.0461,0.4849,1.4038,-1.77,-0.3052
1436985,0.8474,0.0367,0.4868,0.3662,-1.3428,-0.6714
1437005,0.853,0.0431,0.4884,-0.4883,-1.0986,-1.3428
1437025,0.8457,0.049,0.4916,-0.3662,-1.4038,-1.5259
1437045,0.8456,0.0485,0.4979,-0.9766,-1.2207,-1.8921
1437065,0.8452,0.0485,0.4967,-0.4883,-1.1597,-1.8311
1437087,0.8354,0.0421,0.4968,-0.5493,-0.9155,-1.5259
1437107,0.8362,0.0424,0.495,-0.6104,-0.1221,-1.3428
1437127,0.8396,0.0475,0.4865,-0.4272,0.3052,-0.6104
1437147,0.8379,0.0508,0.4799,0.9155,-0.1221,-0.061
1437169,0.843,0.0472,0.4742,2.1973,-0.1831,0.6104
1437189,0.8605,0.0658,0.4542,3.418,-0.4883,1.0986
1437209,0.8646,0.0651,0.4525,6.1035,-1.709,1.8311
1437229,0.8639,0.059,0.458,6.4087,-1.5869,1.8921
1437249,0.8538,0.0327,0.4811,3.7231,-0.6104,1.4648
1437270,0.8567,0.0209,0.4868,1.5259,-0.4883,0.9766
1437290,0.8638,0.0178,0.4939,0.0,-0.6104,0.6104
1437311,0.8668,0.0237,0.493,-0.8545,-1.1597,0.6104
1437331,0.8538,0.0455,0.4926,-0.4883,-1.5259,0.7324
1437351,0.8427,0.0596,0.4877,0.1221,-2.0752,0.7324
1437374,0.8285,0.0636,0.4891,0.4272,-2.0752,0.4272
1437394,0.8182,0.0663,0.4916,0.3052,-1.4038,-0.2441
1437414,0.8158,0.0514,0.5002,0.1221,-0.6104,-0.4883
1437434,0.8201,0.0443,0.5032,-0.2441,0.4272,-0.4883
1437456,0.8219,0.0322,0.5029,0.0,1.1597,0.0
1437476,0.8342,0.0322,0.5013,-0.5493,3.7231,0.7324
1437496,0.8479,0.0359,0.5004,-2.0142,4.0283,0.4272
1437516,0.8492,0.051,0.4913,-0.061,-0.9766,1.5259
1437536,0.8508,0.0565,0.4801,0.061,1.0376,0.4883
1437557,0.8599,0.0676,0.4749,1.9531,-0.6104,-0.1221
1437577,0.8385,0.0615,0.4888,2.7466,-1.4038,-0.9155
1437597,0.847,0.0399,0.4847,1.3428,1.5869,-1.4648
1437617,0.8727,0.0457,0.4689,0.4272,3.2959,-1.5259
1437637,0.8605,0.0594,0.4728,1.8311,1.6479,-0.8545
1437657,0.8462,0.0521,0.4893,3.418,1.8921,15.4419
1437677,0.8586,0.0273,0.4773,1.5259,4.1504,0.3662
1437697,0.8601,0.0248,0.4712,0.7324,2.6245,0.7935
1437717,0.8684,0.0465,0.462,0.7935,1.4038,0.3662
1437737,0.8644,0.0609,0.4637,2.0752,-0.1221,0.3662
1437757,0.8495,0.0411,0.4783,2.6245,-0.7935,0.0
1437777,0.8506,0.0316,0.4797,1.3428,0.1221,-0.1831
1437797,0.8511,0.0269,0.4779,-0.4272,0.2441,0.3052
1437817,0.8494,0.0228,0.4785,-0.9766,-0.6104,0.9766
1437837,0.8481,0.03,0.4812,-1.8921,-0.3052,0.5493
1437857,0.8547,0.0596,0.4723,-1.3428,-0.6714,-0.061
1437877,0.8424,0.0636,0.4785,0.1221,-0.4272,-0.8545
1437897,0.8486,0.056,0.4764,0.4272,0.6104,-1.0986
1437917,0.8496,0.0471,0.4756,0.7935,0.3052,-0.5493
1437941,0.8478,0.0314,0.4778,0.6104,0.6104,-0.061
1437961,0.8496,0.0247,0.478,-0.061,1.3428,-0.1221
1437983,0.8563,0.0309,0.4723,-0.2441,1.8921,-0.3052
1438003,0.8556,0.0338,0.4697,0.1831,1.1597,-0.3052
1438023,0.8539,0.0349,0.4717,0.1221,0.7935,-0.3052
1438046,0.8545,0.0372,0.4753,-0.3662,0.7935,-0.1221
1438066,0.8606,0.0431,0.4757,-1.1597,1.4038,-0.2441
1438086,0.8571,0.045,0.474,-1.6479,1.8921,-1.0376
1438107,0.8561,0.0481,0.4764,-2.1973,2.5024,-1.0986
1438127,0.8556,0.0515,0.4752,-2.0752,2.6855,-1.3428
1438147,0.8531,0.0548,0.4773,-2.3804,2.1362,-1.2207
1438167,0.8469,0.0588,0.4762,-1.0986,1.8921,-1.0376
1438187,0.8472,0.0562,0.4749,-0.9155,2.1362,-0.9766
1438208,0.845,0.0441,0.4724,-0.7935,2.5635,-1.0986
1438228,0.8431,0.0365,0.4742,-1.2817,3.7231,-1.4038
1438248,0.8472,0.0424,0.4751,-1.77,5.7983,-2.0142
1438268,0.8451,0.0487,0.4801,-0.3662,7.4463,-2.6855
1438288,0.8608,0.0468,0.4771,0.061,8.4839,-2.7466
1438308,0.8716,0.0458,0.4698,0.1831,9.3384,-2.8076
1438328,0.8778,0.0397,0.4595,-0.061,9.3994,-3.1128
1438348,0.8781,0.0336,0.4583,-0.3662,9.7656,-3.1738
1438368,0.8833,0.0331,0.457,-0.4272,9.5215,-3.1738
1438388,0.8799,0.0374,0.4507,0.2441,8.4839,-3.1128
1438408,0.8641,0.0365,0.4385,0.4883,7.6294,-2.9907
1438428,0.8533,0.0309,0.4347,0.1831,7.4463,-2.9907
1438448,0.8511,0.0223,0.4324,-0.8545,8.667,-2.9907
1438468,0.859,0.0239,0.4314,-1.4038,8.606,-2.9297
1438488,0.8517,0.025,0.4269,-1.4648,7.8735,-2.9297
1438508,0.8434,0.0273,0.4253,-0.5493,7.019,-2.9907
1438528,0.8474,0.0239,0.4213,-0.1221,7.2021,-2.6245
1438549,0.8474,0.0166,0.4156,-0.2441,8.1787,-2.5024
1438570,0.8497,0.0073,0.4164,-0.5493,8.8501,-2.0752
1438590,0.8652,0.0096,0.4161,-1.709,10.9253,-1.8921
1438610,0.8889,0.0234,0.4122,-1.709,11.3525,-2.0142
1438630,0.9232,0.024,0.3988,-1.9531,12.146,-2.1973
1438650,0.9283,0.0259,0.3965,-2.3804,11.7188,-2.2583
1438670,0.9271,0.0239,0.3944,-2.5024,10.8643,-2.1973
1438690,0.9252,0.0256,0.3917,-2.7466,10.1318,-2.0142
1438710,0.9211,0.028,0.3883,-2.0752,8.606,-1.9531
1438730,0.9208,0.0321,0.3801,-1.3428,7.3853,-1.6479
1438750,0.9142,0.0624,0.3755,-1.0986,8.0566,-1.4648
1438770,0.9121,0.0316,0.3712,-0.9766,7.8125,-0.7324
1438791,0.9126,0.0312,0.3645,-0.1831,7.1411,-0.4272
1438811,0.9169,0.0289,0.3624,0.5493,6.7749,-0.061
1438831,0.9196,0.0245,0.3583,0.9766,6.1646,0.2441
1438854,0.9176,0.0208,0.3535,1.4648,5.188,0.6104
1438874,0.9075,0.0175,0.3502,2.0142,4.4556,0.9766
1438894,0.902,0.0182,0.3489,2.2583,4.1504,1.2207
1438914,0.8987,0.0189,0.3478,2.5024,4.0894,1.4038
1438936,0.8958,0.0256,0.3414,3.479,5.3101,1.5869
1438956,0.903,0.0225,0.3427,4.0283,5.127,2.0142
1438976,0.9227,0.0106,0.3402,3.8452,4.7607,2.2583
1438996,0.9265,0.0074,0.3326,3.8452,3.9062,2.2583
1439016,0.9302,0.0082,0.3289,3.2959,3.1738,1.4648
1439036,0.9357,0.0095,0.3253,3.0518,2.1362,0.8545
1439056,0.9371,0.0098,0.3213,2.6245,2.0752,0.5493
1439076,0.9325,0.0098,0.3218,1.8921,1.6479,0.9155
1439120,0.9271,0.0117,0.3285,0.4272,1.0986,1.0376
1439141,0.9221,0.0175,0.3264,-0.061,0.3662,0.8545
1439161,0.9146,0.0221,0.3271,-0.3052,-0.061,0.6104
1439181,0.9105,0.0278,0.3263,-0.4272,0.2441,0.3052
1439201,0.9108,0.0293,0.3278,-0.2441,-0.3662,0.2441
1439221,0.9067,0.0367,0.3292,0.3052,-0.6104,0.1831
1439241,0.9003,0.0398,0.3282,0.6714,-0.6714,0.1221
1439261,0.9081,0.037,0.3226,1.6479,-0.3052,0.1831
1439281,0.9236,0.0309,0.3291,1.8311,-0.3662,0.3662
1439301,0.9249,0.027,0.3292,1.8921,-0.6104,0.4272
1439322,0.9264,0.0237,0.3303,1.9531,-0.8545,0.5493
1439342,0.9247,0.0247,0.3306,1.9531,-1.2817,0.6104
1439362,0.9219,0.021,0.3306,1.6479,-1.8921,0.3662
1439382,0.9219,0.0226,0.3374,1.5259,-1.709,0.1221
1439402,0.9169,0.0275,0.3374,1.5869,-1.9531,-0.061
1439423,0.9163,0.0266,0.3389,1.77,-1.5869,-0.3052
1439443,0.9192,0.0238,0.3386,1.9531,-2.1362,0.3662
1439463,0.9181,0.0054,0.3423,1.77,-2.3804,-0.3662
1439483,0.9191,0.0088,0.3423,1.4648,-2.0752,-0.3052
1439506,0.918,0.0139,0.3363,1.0986,-2.1973,-0.4883
1439526,0.916,0.0171,0.3408,1.4038,-2.5635,-0.3052
1439546,0.9089,0.0208,0.3461,1.2817,-2.8687,0.061
1439566,0.9117,0.0179,0.3478,1.4038,-2.9297,0.2441
1439586,0.9136,0.0166,0.3503,1.3428,-3.1738,0.4272
1439609,0.9156,0.0187,0.3499,1.4038,-3.1128,0.4272
1439629,0.9144,0.0151,0.3552,1.2817,-3.1738,0.3662
1439649,0.9061,0.0133,0.3608,1.2817,-2.9297,0.3662
1439669,0.9039,0.0143,0.3605,1.4648,-2.7466,0.5493
1439689,0.8997,0.0181,0.358,1.77,-2.3193,0.4272
1439709,0.9106,0.0201,0.3527,1.77,-1.9531,0.4272
1439730,0.9113,0.0205,0.3553,1.8311,-2.5024,0.6714
1439752,0.9109,0.015,0.3596,1.709,-2.8687,0.7324
1439772,0.905,0.0079,0.3563,1.4038,-2.9907,0.6714
1439792,0.9036,0.0066,0.3595,1.4648,-3.1738,0.2441
1439812,0.9011,0.016,0.3693,1.6479,-2.8687,0.1831
1439834,0.9004,0.0177,0.3693,1.3428,-2.5024,0.4272
1439854,0.9028,0.0127,0.3716,0.9766,-1.9531,0.8545
1439874,0.9066,0.0095,0.3682,0.5493,-1.6479,0.7324
1439894,0.9017,0.0142,0.3695,0.3662,-1.5869,0.5493
1439914,0.8958,0.0212,0.3757,0.2441,-1.8311,0.3052
1439934,0.8923,0.0225,0.3762,0.6714,-1.709,0.2441
1439954,0.8914,0.0143,0.3748,1.2207,-1.5259,0.3662
1439974,0.8939,0.0081,0.3749,1.0376,-1.3428,0.8545
1439994,0.8967,0.01,0.3763,1.0986,-1.0376,1.1597
1440014,0.9042,0.0138,0.3793,0.6714,-0.8545,1.709
1440035,0.9055,0.0176,0.38,0.3662,-1.0376,1.77
1440055,0.9032,0.0149,0.3763,0.9766,-1.2817,1.8921
1440075,0.9082,0.0129,0.3768,0.9766,-0.8545,1.77
1440095,0.9086,0.0177,0.3767,0.9766,-1.0376,1.5869
1440115,0.9042,0.0195,0.3757,1.1597,-0.9766,1.77
1440135,0.9019,0.0179,0.3755,0.7324,-0.8545,1.6479
1440156,0.8999,0.02,0.3716,0.6104,-0.4883,1.5869
1440176,0.9019,0.021,0.3701,0.9766,-0.1221,1.2207
1440197,0.9009,0.0168,0.3688,0.9766,-0.6714,1.0986
1440217,0.9,0.0143,0.3702,0.8545,-0.7324,0.7935
1440237,0.9008,0.0128,0.3695,0.4883,-0.6104,0.6714
1440259,0.8955,0.0156,0.3677,0.061,-0.4272,0.6714
1440279,0.8978,0.0225,0.37,0.1831,-0.4883,0.6104
1440299,0.9069,0.025,0.3722,0.1831,-0.1831,0.9766
1440319,0.9119,0.0282,0.3716,0.2441,-0.2441,1.0376
1440339,0.915,0.0287,0.3726,0.4272,-0.3052,1.4648
1440359,0.9115,0.032,0.3737,0.6104,-0.5493,1.5259
1440379,0.9073,0.0348,0.3724,0.9766,-0.6714,1.3428
1440399,0.901,0.0325,0.3712,1.709,-0.7935,1.3428
1440419,0.901,0.0312,0.3678,1.8311,-0.6714,1.0986
1440439,0.8983,0.0292,0.3672,1.8921,-0.6104,1.2207
1440459,0.8901,0.0234,0.3634,2.0142,-0.6104,1.0986
1440481,0.8892,0.017,0.3639,1.4648,-0.1221,0.9766
1440501,0.8861,0.0146,0.3617,1.4038,-0.061,0.7324
1440521,0.884,0.015,0.3649,1.0376,0.5493,0.6104
1440541,0.8866,0.0217,0.3635,0.4272,0.3052,0.6104
1440563,0.8948,0.0184,0.3679,0.0,0.4883,0.8545
1440583,0.9038,0.0194,0.3728,-0.2441,0.5493,1.0376
1440606,0.9183,0.0249,0.3727,-0.1831,0.3662,0.8545
1440626,0.9188,0.0277,0.3765,-0.4272,-0.061,0.8545
1440646,0.9174,0.0298,0.3783,-0.6104,-0.3662,0.6714
1440666,0.92,0.036,0.3749,-0.6714,-0.4272,0.5493
1440689,0.9127,0.0389,0.3755,-0.1831,-0.5493,0.4883
1440709,0.9137,0.0388,0.3746,0.5493,-0.7324,0.6104
1440729,0.9125,0.0409,0.3719,0.7935,-0.6104,0.6104
1440749,0.9083,0.0367,0.3685,1.2817,-0.7935,0.1831
1440769,0.9067,0.0304,0.365,1.2207,-0.9155,-0.1221
1440789,0.8994,0.0303,0.37,1.6479,-1.3428,-0.2441
1440813,0.8906,0.0226,0.3666,1.4648,-1.2207,-0.3052
1440833,0.8899,0.0171,0.3706,0.9155,-0.9766,-0.6104
1440857,0.8909,0.0177,0.371,0.061,-0.6104,-0.9766
1440878,0.8922,0.0167,0.3694,-0.061,-0.6104,-1.2207
1440898,0.901,0.0151,0.3726,-0.9766,-0.1221,-1.2817
1440918,0.9059,0.0184,0.3737,-1.0986,-0.061,-1.5259
1440938,0.9077,0.0211,0.3711,-1.709,-0.1831,-1.2207
1440958,0.9089,0.0243,0.3723,-1.1597,-0.7324,-1.1597
1440978,0.9094,0.0272,0.3743,-1.2817,-0.8545,-0.8545
1440998,0.9119,0.0297,0.3729,-0.9766,-0.9155,-0.4883
1441018,0.91,0.0272,0.3722,-0.9155,-1.1597,0.061
1441041,0.8998,0.0277,0.3733,-0.7324,-1.0986,0.061
1441061,0.9025,0.0294,0.3739,-0.4883,-0.6714,0.0
1441081,0.9089,0.0315,0.3701,0.3052,-0.6714,0.0
1441101,0.9025,0.0288,0.3741,1.3428,-0.9766,0.6714
1441121,0.9001,0.0198,0.3729,1.2207,-0.6714,0.7935
1441141,0.8986,0.0217,0.3728,1.0986,-0.3662,0.8545
1441163,0.8977,0.0258,0.3693,1.5259,-0.2441,0.7935
1441183,0.8956,0.0209,0.3698,1.8921,0.0,0.9766
1441207,0.8944,0.0251,0.365,2.1362,0.061,0.9155
1441227,0.8896,0.0236,0.3619,1.8311,0.2441,0.9766
1441247,0.8885,0.0153,0.3694,1.5259,0.9155,0.9766
1441267,0.897,0.0192,0.3734,2.4414,1.0376,0.6104
1441289,0.899,0.0217,0.375,2.3193,0.3662,0.7935
1441309,0.9111,0.0214,0.3756,1.9531,0.7324,0.7324
1441332,0.9156,0.0225,0.373,1.709,0.8545,1.0376
1441352,0.9131,0.0231,0.3774,1.5869,0.4883,0.9766
1441373,0.9119,0.0242,0.3732,1.5259,0.2441,0.7935
1441394,0.9105,0.0194,0.37,1.3428,0.5493,0.3662
1441414,0.9084,0.0187,0.3678,0.6714,0.7324,0.061
1441434,0.9106,0.0189,0.3678,0.6714,0.5493,-0.061
1441454,0.9094,0.0206,0.3662,0.4272,0.3052,-0.2441
1441476,0.9039,0.0215,0.3647,0.4883,0.061,0.1221
1441496,0.9025,0.0205,0.3617,-0.061,-0.1221,0.3052
1441517,0.8934,0.0201,0.363,0.1831,-0.2441,0.2441
1441538,0.8962,0.0221,0.3638,0.4272,-0.1831,0.4883
1441558,0.9011,0.0244,0.3606,0.4272,0.061,0.4883
1441578,0.9065,0.0234,0.3639,0.0,0.3052,0.3662
1441598,0.9117,0.0237,0.3611,-0.2441,0.061,0.3052
1441618,0.9119,0.0225,0.3613,-0.5493,-0.1221,0.1831
1441638,0.9121,0.0248,0.3616,-0.4883,-0.3662,0.061
1441659,0.9084,0.0258,0.3582,-0.5493,-0.7935,0.0
1441679,0.9038,0.0245,0.3611,-0.3052,-0.7935,0.1831
1441699,0.9056,0.0277,0.3619,0.0,-0.7935,0.2441
1441720,0.9059,0.0305,0.3595,0.7324,-0.7324,0.6104
1441740,0.9103,0.0306,0.3632,1.5869,-1.0376,1.2207
1441760,0.908,0.0291,0.3654,1.77,-1.4038,1.5869
1441781,0.9052,0.027,0.3656,2.0142,-1.3428,1.6479
1441801,0.9023,0.0262,0.3694,2.1973,-1.2817,1.77
1441821,0.9038,0.0259,0.3707,2.6855,-1.2817,1.6479
1441841,0.903,0.0272,0.3722,2.9907,-1.1597,1.709
1441861,0.9059,0.0289,0.364,3.0518,-0.8545,1.6479
1441881,0.9082,0.0303,0.3718,3.1128,-0.6104,1.77
1441901,0.9105,0.0228,0.3711,3.3569,-0.6104,1.77
1441921,0.9124,0.0184,0.3699,3.418,-0.6714,2.1362
1441941,0.9098,0.0172,0.3676,2.9297,-0.8545,2.3804
1441961,0.9041,0.0183,0.3684,2.5635,-0.7935,2.5635
1441981,0.9008,0.02,0.3711,2.0752,-0.5493,2.5024
1442001,0.8995,0.0186,0.369,2.0142,-0.6104,2.3193
1442021,0.8964,0.0209,0.3683,1.9531,-0.6714,2.1362
1442042,0.894,0.0269,0.3685,1.5869,-0.6714,1.77
1442062,0.8948,0.0294,0.3679,1.709,-0.6714,1.77
1442082,0.8964,0.027,0.368,1.6479,-0.6104,1.8921
1442102,0.902,0.0229,0.3712,1.2207,-0.7935,1.9531
1442122,0.8999,0.0253,0.3707,1.0376,-0.3662,1.4648
1442142,0.9023,0.0306,0.3679,1.0986,-0.6104,1.5869
1442162,0.9044,0.0336,0.3694,0.9155,-0.3052,1.5259
1442186,0.8992,0.0309,0.3678,0.7935,-0.6714,1.0986
1442206,0.9019,0.0273,0.3682,0.5493,-0.7324,0.9766
1442226,0.9076,0.0354,0.3676,0.4272,-0.3052,0.3662
1442246,0.9059,0.0369,0.3643,0.3052,-0.4272,0.2441
1442267,0.9052,0.0303,0.3663,0.3662,-0.4272,0.061
1442287,0.9122,0.0315,0.3652,-0.061,-0.3662,-0.061
1442307,0.912,0.0375,0.3665,-0.061,-0.061,0.1831
1442329,0.9105,0.0356,0.3663,0.061,-0.4883,0.3052
1442350,0.9087,0.0353,0.364,0.3662,-0.7324,0.9155
1442370,0.9097,0.0363,0.3672,0.5493,-1.0376,1.2207
1442390,0.906,0.0375,0.3688,0.5493,-1.1597,1.0986
1442410,0.9027,0.0381,0.3688,0.6714,-0.9766,1.0986
1442430,0.8994,0.0387,0.3669,0.6714,-0.9766,1.1597
1442450,0.8967,0.0359,0.3657,0.6104,-0.9155,1.2207
1442472,0.8948,0.0349,0.3615,0.4272,-0.8545,1.2207
1442492,0.896,0.0374,0.3662,0.5493,-0.6714,1.1597
1442516,0.8967,0.0414,0.365,0.6104,-0.7324,1.4038
1442536,0.895,0.0376,0.3668,0.7324,-0.9766,1.77
1442556,0.9077,0.0333,0.3668,0.7324,-0.7935,2.0142
1442576,0.9193,0.0345,0.3704,0.7324,-0.8545,1.709
1442598,0.9152,0.0374,0.3773,0.9155,-1.1597,1.6479
1442618,0.9099,0.038,0.3788,1.4648,-1.5259,1.2817
1442642,0.9039,0.0381,0.3756,1.6479,-1.5259,1.0376
1442662,0.902,0.0293,0.3744,1.5259,-1.4648,1.3428
1442682,0.8975,0.0261,0.3739,1.2207,-1.1597,1.3428
1442702,0.8966,0.0267,0.3755,0.7935,-0.9766,1.3428
1442724,0.9,0.0319,0.374,0.5493,-0.7935,1.0986
1442744,0.899,0.0402,0.3722,0.4883,-1.0986,1.2817
1442764,0.9004,0.041,0.3748,0.4272,-1.2207,1.4038
1442784,0.9006,0.0446,0.3756,0.4272,-1.2817,1.2817
1442805,0.9022,0.0481,0.377,0.7935,-1.5259,1.1597
1442829,0.9066,0.0477,0.3765,1.4038,-1.3428,0.7324
1442849,0.9037,0.0457,0.3784,1.6479,-1.5259,0.9155
1442869,0.9033,0.0424,0.3809,1.3428,-1.3428,0.5493
1442889,0.9043,0.0426,0.3785,1.1597,-1.2817,0.4883
1442909,0.9015,0.0433,0.377,1.1597,-1.2207,0.2441
1442929,0.8964,0.0427,0.3766,1.2817,-1.0376,0.1221
1442949,0.8945,0.0411,0.3792,1.0986,-1.1597,0.1221
1442970,0.8971,0.0416,0.376,0.9766,-1.0986,0.1831
1442990,0.8982,0.0408,0.3774,0.7324,-1.4038,0.1831
1443012,0.8994,0.0406,0.3795,0.6104,-1.4648,0.061
1443032,0.8992,0.0431,0.3759,0.6714,-1.4038,-0.1221
1443052,0.8989,0.0458,0.3822,0.7324,-1.5259,-0.6104
1443072,0.8994,0.0433,0.3812,1.3428,-1.709,-0.7935
1443092,0.8959,0.0433,0.38,1.3428,-1.8311,-0.4883
1443112,0.8909,0.0403,0.3798,1.4038,-1.6479,-0.3052
1443135,0.8992,0.0336,0.3831,1.5259,-1.2817,0.061
1443155,0.9064,0.0398,0.382,1.2817,-1.709,0.061
1443175,0.902,0.0369,0.3801,1.6479,-1.77,0.1221
1443196,0.9041,0.038,0.3842,1.5259,-1.6479,0.061
1443216,0.9025,0.035,0.3817,1.709,-1.3428,-0.061
1443236,0.8949,0.0255,0.3834,2.0142,-1.0986,-0.1831
1443256,0.881,0.017,0.3813,1.8921,0.1221,-0.2441
1443276,0.8746,0.0317,0.3877,-1.2207,3.0518,-0.3662
1443296,0.8853,0.037,0.4009,-3.0518,5.188,-0.6714
1443316,0.8969,0.035,0.3978,-2.8076,5.3711,-0.7324
1443336,0.9065,0.0355,0.3896,-1.3428,4.9438,-0.7935
1443356,0.9131,0.0408,0.3834,-0.9155,4.0283,-0.9155
1443378,0.9155,0.0468,0.3743,-0.3052,2.1973,-0.9766
1443399,0.9044,0.0463,0.3751,-0.3662,0.8545,-1.2817
1443419,0.8942,0.0392,0.3713,0.6104,-0.6104,-1.1597
1443441,0.8843,0.0393,0.373,0.9766,-0.7324,-0.9155
1443461,0.8846,0.0369,0.3701,1.6479,-0.9766,-0.1831
1443481,0.8928,0.0276,0.3752,1.709,-1.0986,0.3662
1443501,0.8973,0.0255,0.3785,1.2207,-0.9766,0.9155
1443521,0.902,0.0262,0.3763,1.4038,-1.1597,1.2817
1443541,0.9061,0.0284,0.3727,1.77,-0.9155,1.2207
1443561,0.9097,0.0247,0.375,1.5259,-0.4883,0.9155
1443581,0.9023,0.027,0.3802,0.9155,-0.5493,0.7935
1443601,0.8962,0.031,0.3762,0.3662,-0.4272,0.6714
1443621,0.9003,0.0297,0.3723,0.1831,-0.1831,0.6104
1443641,0.9064,0.0283,0.371,0.0,-0.061,0.5493
1443681,0.9099,0.0393,0.3732,0.061,-0.8545,0.0
1443701,0.9036,0.0414,0.3723,0.3662,-1.4038,-0.1221
1443721,0.8958,0.0399,0.3784,0.7324,-1.4038,0.1831
1443741,0.8932,0.0366,0.3785,0.9155,-1.3428,0.3052
1443762,0.8936,0.0365,0.3806,1.2207,-1.2207,0.7324
1443782,0.8994,0.0348,0.382,1.4038,-1.0376,0.9766
1443802,0.8961,0.0339,0.38,1.4648,-1.2207,1.0986
1443822,0.8932,0.0299,0.3781,1.709,-0.7935,1.3428
1443842,0.8987,0.0284,0.375,1.5869,-0.6104,1.2207
1443862,0.9027,0.0321,0.3713,1.3428,-0.3662,1.0986
1443882,0.8962,0.0297,0.3734,0.9155,-0.7935,1.1597
1443902,0.8947,0.024,0.3789,0.4883,-0.3052,0.8545
1443922,0.8942,0.0295,0.3776,-0.2441,-0.1221,0.5493
1443946,0.8994,0.0354,0.3805,-0.2441,0.1831,0.2441
1443966,0.899,0.0369,0.3842,-0.3052,0.0,0.2441
1443987,0.897,0.0372,0.3845,-0.4272,-0.3662,0.2441
1444007,0.8926,0.0344,0.3845,-0.3052,-0.4272,0.1831
1444027,0.8907,0.0381,0.382,0.0,-0.061,0.061
1444047,0.8936,0.043,0.3838,0.3662,0.1831,-0.061
1444067,0.8988,0.0464,0.3829,0.4272,0.4883,-0.061
1444087,0.9038,0.0422,0.382,0.6714,0.0,0.1221
1444107,0.9067,0.0381,0.3794,0.5493,-0.1831,0.0
1444127,0.907,0.0345,0.3805,0.4883,-0.5493,0.061
1444148,0.9033,0.0352,0.3856,0.4883,-0.5493,-0.061
1444168,0.8969,0.0338,0.384,0.4883,-0.7935,0.0
1444189,0.8976,0.0302,0.3752,0.4883,-0.7935,0.061
1444209,0.9142,0.035,0.3647,0.4883,-0.2441,-0.1831
1444229,0.9196,0.0413,0.3661,0.4883,-0.8545,-0.2441
1444249,0.9115,0.0378,0.3737,-0.1831,-0.7324,-0.1831
1444269,0.9076,0.0375,0.3732,-0.2441,-0.8545,0.0
1444290,0.8993,0.0347,0.3762,-0.3052,-0.4272,-0.1831
1444310,0.8977,0.0339,0.3756,-0.061,-0.2441,-0.3052
1444330,0.896,0.0347,0.3754,0.061,-0.1831,-0.3052
1444350,0.8955,0.0378,0.374,0.1221,0.0,-0.6104
1444370,0.8921,0.0404,0.3743,0.4883,-0.061,-0.5493
1444391,0.8956,0.0391,0.3706,0.4883,0.061,-0.6104
1444411,0.8948,0.0365,0.3733,0.8545,0.1221,-0.4883
1444433,0.8911,0.0361,0.3698,0.9766,0.061,-0.3662
1444453,0.8938,0.0316,0.3715,1.0376,0.1221,-0.3052
1444473,0.8984,0.0287,0.3695,1.0986,0.1831,-0.3052
1444493,0.8948,0.0266,0.3757,0.6104,0.1831,-0.5493
1444513,0.8864,0.0227,0.3789,0.3052,0.1221,-0.8545
1444533,0.8894,0.0248,0.3831,-0.061,0.8545,-1.2207
1444553,0.9064,0.0306,0.3763,0.1221,1.5259,-1.2207
1444573,0.9131,0.0293,0.3756,-0.3052,1.0376,-1.2207
1444593,0.9142,0.0244,0.3732,-0.4272,0.6104,-1.0986
1444614,0.9165,0.0247,0.3715,-0.6104,0.4272,-1.3428
1444634,0.9114,0.0314,0.3728,-0.6104,0.1221,-1.3428
1444654,0.9062,0.0282,0.3695,-0.1221,0.1221,-1.1597
1444674,0.9056,0.0243,0.3718,-0.1831,0.6714,-0.8545
1444696,0.906,0.0305,0.3707,0.3662,0.4883,-0.6104
1444716,0.9055,0.0295,0.371,1.1597,0.6104,0.1831
1444736,0.8981,0.0258,0.37,1.1597,0.7935,1.0376
1444756,0.8959,0.0267,0.3721,1.2817,-0.1831,1.4038
1444776,0.8927,0.0278,0.3795,1.2817,-0.4272,1.4648
1444796,0.89,0.0295,0.3801,1.5869,0.061,1.4648
1444816,0.8918,0.0295,0.3729,1.4038,0.4272,1.5869
1444836,0.8993,0.0314,0.37,1.2817,0.5493,1.2817
1444856,0.9041,0.0322,0.3677,1.1597,1.4038,1.0986
1444876,0.9196,0.0325,0.3691,1.0376,1.0986,0.7324
1444897,0.9144,0.0316,0.368,0.9155,-0.6714,0.6104
1444917,0.912,0.0342,0.363,0.4272,0.1221,0.3052
1444937,0.9064,0.031,0.3644,0.3052,-0.9155,-0.061
1444957,0.9058,0.0322,0.363,0.0,-0.4272,-0.1831
1444977,0.9072,0.0327,0.3613,0.0,0.2441,-0.1221
1444997,0.9037,0.0331,0.3654,0.2441,-0.9155,-0.3052
1445017,0.9054,0.0355,0.3633,0.3662,-0.7935,-0.3662
1445037,0.9028,0.0342,0.3634,0.2441,-0.4883,-0.1221
1445057,0.9022,0.0305,0.3612,0.1831,1.709,0.0
1445118,0.9025,0.0269,0.3574,0.0,-0.1221,-0.061
1445147,0.8953,0.0275,0.3594,0.3662,-0.061,-0.1831
1445167,0.903,0.0253,0.3645,0.5493,0.3662,-0.3052
1445187,0.9061,0.0232,0.3632,0.5493,-0.5493,-0.1831
1445207,0.912,0.0214,0.3651,0.061,-0.1221,0.1221
1445227,0.9189,0.0186,0.3645,-0.3662,-0.4883,0.4272
1445247,0.9189,0.0204,0.3669,-0.6714,-0.8545,0.8545
1445267,0.9205,0.0262,0.3712,-0.9155,-0.9155,0.8545
1445289,0.9268,0.0356,0.3699,-0.4883,-0.9155,0.7935
1445309,0.9258,0.0386,0.3684,-0.1831,-1.0986,0.6104
1445329,0.9208,0.0392,0.3645,-0.2441,-1.5259,0.4272
1445349,0.9137,0.0374,0.3711,0.5493,-2.0142,0.5493
1445369,0.9188,0.0402,0.371,0.4272,-1.8311,0.5493
1445389,0.9172,0.0427,0.3741,1.0376,-2.7466,0.6104
1445409,0.9106,0.0364,0.3763,1.3428,-2.6245,0.9155
1445469,0.9276,0.0461,0.3867,1.1597,-3.9062,0.061
1445489,0.9152,0.046,0.3835,1.5869,-4.8828,-0.1221
1445509,0.9062,0.04,0.3816,1.709,-5.6763,0.0
1445529,0.8856,0.0336,0.3776,1.5869,-5.3101,0.1831
1445549,0.8738,0.0319,0.3811,1.4038,-4.5166,0.0
1445569,0.8605,0.0308,0.3746,1.5259,-3.2959,-0.1831
1445589,0.8563,0.0288,0.3722,2.0142,-2.8076,-0.5493
1445610,0.8519,0.0269,0.3724,1.8921,-1.8311,-0.4272
1445633,0.8575,0.0234,0.3727,1.5869,-1.2207,-0.3052
1445653,0.8695,0.0233,0.3752,1.4648,-0.7935,-0.2441
1445673,0.8829,0.0204,0.3765,1.0986,-0.8545,-0.1221
1445694,0.8914,0.0176,0.3788,1.0376,-0.9766,0.0
1445714,0.8992,0.0172,0.3839,0.4272,-0.7935,-0.1831
1445735,0.9104,0.0222,0.3895,0.1831,-1.0376,-0.1221
1445755,0.9187,0.0282,0.3899,0.4883,-1.4038,-0.2441
1445776,0.9175,0.0286,0.3962,0.5493,-1.709,-0.1221
1445796,0.9133,0.0271,0.3955,0.6104,-1.77,-0.3052
1445816,0.9095,0.0277,0.3938,0.6104,-1.6479,-0.2441
1445836,0.9039,0.0277,0.3925,0.9155,-1.5869,-0.2441
1445856,0.8951,0.0264,0.3892,1.1597,-1.4038,-0.1221
1445876,0.8906,0.0245,0.3879,1.5259,-1.2207,0.061
1445899,0.884,0.0198,0.3827,1.4648,-1.0376,0.1221
1445919,0.8811,0.0161,0.3839,1.5869,-1.0376,0.4272
1445940,0.8826,0.0154,0.3844,1.1597,-0.6104,0.4883
1445960,0.8831,0.0168,0.3864,1.2207,-0.4272,0.2441
1445982,0.8875,0.02,0.3855,0.9155,-0.7935,0.3052
1446002,0.8916,0.019,0.3879,0.9155,-0.8545,0.3662
1446022,0.8989,0.019,0.3906,0.6104,-1.0986,0.5493
1446042,0.8983,0.0204,0.3965,0.3052,-1.2817,0.6714
1446062,0.8942,0.0236,0.3994,0.1221,-0.9766,0.7935
1446082,0.8956,0.0233,0.4023,0.061,-1.0986,0.7324
1446104,0.8947,0.0247,0.4027,0.0,-0.8545,0.7324
1446124,0.8945,0.0271,0.4009,0.1221,-0.7324,0.8545
1446144,0.8994,0.0275,0.3983,0.4272,-0.3662,0.5493
1446164,0.9039,0.0338,0.3947,0.4883,-0.4883,0.6714
1446184,0.8938,0.0322,0.3984,0.7324,-1.2207,1.0376
1446204,0.8876,0.02,0.3929,0.7324,-1.0986,1.0986
1446224,0.894,0.0239,0.3884,0.4272,-0.9155,1.0986
1446244,0.894,0.0295,0.3894,0.7324,-1.1597,1.0376
1446264,0.8816,0.0289,0.3895,1.2207,-1.4038,0.9766
1446284,0.8876,0.0288,0.3881,0.8545,-0.7324,0.6714
1446304,0.8932,0.0287,0.3926,0.6714,-0.3052,0.5493
1446324,0.8989,0.0304,0.3953,0.8545,-0.4272,0.4272
1446344,0.8987,0.0311,0.3929,0.6714,-0.5493,0.2441
1446364,0.895,0.0255,0.3954,0.8545,-0.7935,0.3662
1446384,0.8929,0.0267,0.3967,0.5493,-0.3052,0.3052
1446404,0.8937,0.0294,0.3979,0.7935,-0.3052,0.2441
1446424,0.8948,0.0319,0.3927,1.0376,-0.5493,0.6104
1446444,0.8914,0.0278,0.3915,0.8545,-0.4272,0.6714
1446464,0.8831,0.0272,0.3798,0.4883,0.0,0.9155
1446484,0.873,0.0253,0.3772,0.061,1.709,0.4272
1446524,0.8704,0.0259,0.3904,0.5493,1.5259,1.4038
1446548,0.8755,0.0161,0.389,0.1221,1.6479,2.1362
1446568,0.881,0.0181,0.3894,-0.4883,2.3193,2.3804
1446588,0.8918,0.0238,0.391,-0.4883,2.5635,2.3193
1446609,0.91,0.0288,0.3955,-0.3052,2.7466,2.1973
1446629,0.9176,0.0283,0.395,0.0,1.8921,1.9531
1446650,0.9241,0.0304,0.3962,-0.061,1.3428,1.6479
1446670,0.9277,0.0344,0.3982,0.061,0.4883,1.5259
1446690,0.9269,0.0382,0.3933,0.4272,-0.3052,1.77
1446710,0.9227,0.0389,0.3936,0.7935,-0.6714,1.9531
1446730,0.9139,0.0402,0.3873,0.9155,-1.0376,1.9531
1446750,0.9045,0.04,0.3873,1.2207,-1.3428,1.8921
1446770,0.8986,0.0422,0.3842,1.5869,-1.4648,1.709
1446790,0.8846,0.0452,0.3806,1.77,-1.5869,1.709
1446810,0.88,0.0443,0.379,1.77,-1.3428,1.4038
1446830,0.8777,0.0432,0.3783,2.0142,-0.9766,1.3428
1446851,0.8795,0.0408,0.3761,1.8311,-0.6714,1.1597
1446871,0.8831,0.0406,0.3763,1.6479,-0.7324,0.7935
1446894,0.8879,0.0413,0.3802,1.709,-0.9766,0.7935
1446914,0.8933,0.0411,0.3867,1.709,-1.2207,0.7935
1446934,0.8987,0.0371,0.3894,1.5869,-1.2207,0.7935
1446954,0.9038,0.038,0.3936,1.3428,-1.4648,0.6714
1446976,0.8988,0.0409,0.3979,1.2817,-1.77,0.4883
1446996,0.8964,0.0438,0.3979,0.8545,-1.5259,0.1831
1447016,0.8997,0.0415,0.3971,0.6714,-1.4648,-0.061
1447036,0.9022,0.0406,0.3977,0.6104,-1.4648,-0.061
1447056,0.8942,0.041,0.3976,1.0376,-1.4038,-0.1831
1447076,0.8892,0.042,0.3938,0.9155,-1.4648,-0.3052
1447096,0.8882,0.0428,0.3976,1.2207,-1.0376,-0.1831
1447117,0.8912,0.0431,0.3934,1.1597,-0.9155,-0.3052
1447137,0.8914,0.0374,0.3926,1.3428,-0.5493,-0.4272
1447157,0.8899,0.0415,0.3928,1.3428,-0.4272,-0.5493
1447177,0.8864,0.0403,0.3918,1.5259,-1.0376,-0.6714
1447197,0.8848,0.032,0.3933,1.6479,-0.6104,-0.7324
1447217,0.8882,0.0302,0.3898,1.5259,-0.5493,-0.8545
1447240,0.8877,0.0332,0.3927,1.4648,-0.3662,-1.0376
1447260,0.8917,0.0289,0.3943,1.3428,-0.1831,-1.2207
1447283,0.9012,0.0194,0.3955,0.7324,0.061,-0.8545
1447303,0.9048,0.02,0.394,0.4272,-0.1221,-0.6714
1447323,0.9047,0.0215,0.3927,0.1831,-0.061,-0.6104
1447343,0.903,0.0223,0.3903,-0.061,-0.4883,-0.3662
1447363,0.899,0.0245,0.3933,-0.3662,-0.8545,-0.2441
1447385,0.8951,0.0271,0.3929,-0.4883,-0.6714,-0.061
1447405,0.8928,0.0304,0.3928,-0.2441,-0.7324,0.1831
1447425,0.8948,0.0349,0.3881,0.0,-0.6104,0.4272
1447445,0.8915,0.037,0.3904,0.5493,-0.6104,0.6104
1447465,0.8899,0.0375,0.3922,0.6104,-0.6714,0.6714
1447485,0.8903,0.0376,0.3947,0.7935,-0.3662,0.7935
1447505,0.8894,0.0369,0.3922,0.9766,-0.4272,0.9155
1447526,0.8884,0.0333,0.3928,1.4648,-0.4272,0.8545
1447546,0.8911,0.0309,0.3909,1.8921,-0.3052,0.7935
1447566,0.8937,0.0338,0.3893,1.4038,-0.4883,0.9155
1447586,0.8962,0.0309,0.3916,0.9155,-0.8545,1.0376
1447606,0.8978,0.0234,0.3955,0.7324,-0.8545,0.8545
1447668,0.8938,0.0391,0.3966,0.1831,-0.6104,-0.6104
1447688,0.8898,0.038,0.394,0.2441,-0.3052,-0.3662
1447708,0.8885,0.0341,0.395,0.061,-0.1831,-0.061
1447728,0.8879,0.0333,0.3905,0.3052,-0.3052,0.061
1447750,0.8854,0.0339,0.3915,0.1221,-0.5493,0.0
1447770,0.8853,0.0342,0.3906,0.5493,-0.2441,0.061
1447790,0.8862,0.0319,0.3916,0.4272,0.1831,0.061
1447810,0.8884,0.0325,0.3936,0.4883,0.0,0.1831
1447830,0.8896,0.0366,0.3923,0.7935,-0.1831,0.4272
1447850,0.8901,0.0364,0.3939,0.7935,0.0,0.3662
1447870,0.8937,0.0297,0.3893,0.9155,-0.1221,0.4883
1447890,0.9022,0.028,0.3922,0.7324,-0.061,0.4272
1447910,0.9001,0.0311,0.3927,0.6104,-0.5493,0.3052
1447930,0.8958,0.03,0.3921,0.6714,-0.5493,0.1831
1447950,0.8912,0.0292,0.3878,0.3662,-0.3662,0.1221
1447970,0.892,0.0267,0.3887,0.0,0.1831,0.2441
1447990,0.8953,0.0298,0.3873,-0.1221,0.4272,0.1831
1448010,0.8953,0.0319,0.3865,0.4272,0.1221,0.1221
1448031,0.8959,0.03,0.385,0.4883,0.0,0.061
1448051,0.895,0.0278,0.3846,0.2441,0.1221,-0.061
1448071,0.8937,0.0259,0.3834,-0.2441,0.1221,-0.1221
1448093,0.8921,0.0284,0.394,-0.4272,-0.061,-0.3052
1448113,0.8895,0.0275,0.3947,-0.3662,0.4883,-0.3052
1448133,0.8917,0.0261,0.3964,-0.5493,0.9155,-0.5493
1448153,0.9005,0.0304,0.3925,-0.3052,1.6479,-0.3662
1448173,0.9086,0.0367,0.3893,-0.1831,1.77,0.0
1448193,0.907,0.0339,0.3872,-0.1831,1.0986,0.4272
1448214,0.9052,0.0327,0.3851,-0.1831,1.0986,0.9766
1448234,0.9045,0.0337,0.3837,0.061,0.2441,1.1597
1448254,0.8977,0.0353,0.3835,0.6104,-0.1831,1.4038
1448274,0.8958,0.0316,0.3837,1.2207,-0.5493,1.3428
1448296,0.8959,0.0352,0.3848,1.2817,0.1221,1.2817
1448316,0.8934,0.0361,0.3832,1.0986,0.3052,1.2207
1448336,0.8904,0.036,0.3868,1.0376,0.8545,1.3428
1448358,0.896,0.0348,0.3855,1.2207,1.4648,1.3428
1448378,0.9005,0.0398,0.3829,0.9155,1.6479,1.0376
1448399,0.8965,0.0389,0.3842,0.9155,1.709,0.9155
1448419,0.897,0.0376,0.3831,0.5493,1.4648,0.3052
1448442,0.8951,0.0342,0.382,-0.1831,1.2207,-0.061
1448462,0.8931,0.0278,0.3768,-0.6714,1.4038,-0.3052
1448482,0.8939,0.0389,0.3793,-0.9766,2.0752,-1.0376
1448502,0.8931,0.0493,0.3826,-0.9766,2.7466,-1.9531
1448523,0.8884,0.0497,0.3876,-0.8545,2.6855,-2.0142
1448543,0.8904,0.042,0.3802,-0.6104,3.418,-2.0142
1448563,0.899,0.0397,0.3788,-0.7935,4.3335,-2.0142
1448583,0.9045,0.0499,0.37,-0.4883,4.4556,-2.1973
1448603,0.9104,0.0492,0.3706,0.3662,3.9062,-2.3804
1448623,0.908,0.0415,0.3682,0.7324,3.0518,-2.3193
1448643,0.9072,0.0345,0.3676,0.3662,3.6011,-2.5635
1448663,0.9058,0.036,0.3623,0.6104,3.7231,-2.7466
1448683,0.9082,0.0355,0.3667,1.0376,3.479,-3.2349
1448703,0.913,0.0333,0.3657,1.6479,3.1738,-3.1738
1448723,0.9109,0.0234,0.361,1.8921,2.6855,-2.9297
1448743,0.9075,0.0183,0.36,2.0142,2.5635,-2.6245
1448763,0.9077,0.0162,0.3628,1.6479,2.6245,-2.4414
1448783,0.9059,0.0153,0.3641,1.6479,2.5024,-2.3804
1448803,0.911,0.0166,0.36,1.77,2.5024,-2.2583
1448823,0.91,0.0157,0.3575,1.77,2.0752,-2.2583
1448843,0.9105,0.0153,0.3539,1.709,1.77,-2.3804
1448867,0.9093,0.0089,0.3563,1.8311,1.5259,-2.1973
1448887,0.9043,0.0027,0.3579,1.9531,1.1597,-2.1362
1448907,0.9052,0.0079,0.3591,1.9531,1.0376,-1.8311
1448927,0.9061,0.0063,0.3558,2.1362,0.7935,-1.4038
1448947,0.9064,-0.0006,0.353,1.8311,1.0376,-1.4038
1448967,0.9059,0.0029,0.3546,1.5869,1.2817,-1.2817
1448987,0.8973,0.0,0.3591,1.8921,1.709,-1.2207
1449007,0.8942,-0.007,0.3596,2.0142,2.3804,-0.7935
1449027,0.8999,-0.0116,0.3575,1.6479,3.2959,-0.4272
1449049,0.9124,-0.0029,0.358,1.4648,3.6621,-0.4883
1449069,0.9122,0.0005,0.3563,1.2207,3.479,-0.4883
1449089,0.9098,0.0013,0.3516,1.5259,3.1128,-0.3052
1449109,0.911,-0.0013,0.355,1.709,2.8687,0.1831
1449129,0.9165,-0.0002,0.3599,2.4414,3.2959,0.3662
1449149,0.9321,0.0095,0.356,3.1738,4.2114,0.6104
1449169,0.9381,0.0142,0.3531,3.7231,4.2725,0.7324
1449189,0.9376,0.0226,0.3462,4.6387,3.7231,0.5493
1449210,0.9338,0.0212,0.3423,5.0659,3.2349,0.4883
1449234,0.9492,0.01,0.3358,5.4321,2.4414,0.2441
1449254,0.9344,0.0051,0.3253,5.3101,0.8545,0.0
1449275,0.9148,0.0016,0.3225,5.3101,-0.1221,-0.2441
1449295,0.9032,-0.0016,0.3213,4.3335,-0.061,-0.3662
1449316,0.9038,-0.0107,0.3177,3.418,0.7324,-0.1831
1449336,0.9106,-0.0094,0.3187,1.8921,1.4038,0.3052
1449357,0.9164,-0.0048,0.3146,1.5259,0.9766,0.2441
1449377,0.9149,-0.0007,0.3177,1.5869,0.6714,0.1831
1449397,0.9109,-0.0017,0.317,1.77,0.6714,0.0
1449417,0.9084,-0.006,0.3158,1.6479,0.6714,0.1831
1449437,0.9037,-0.0087,0.3145,1.5869,0.7324,0.3052
1449457,0.8964,-0.0082,0.3174,1.2817,0.5493,0.5493
1449477,0.8973,-0.011,0.3145,1.2207,1.0376,0.5493
1449499,0.9021,-0.0109,0.3165,0.4272,1.3428,0.8545
1449519,0.9121,-0.009,0.3169,-0.4272,1.5869,0.9155
1449540,0.928,-0.0104,0.3191,-0.9155,1.77,1.1597
1449560,0.9315,-0.0017,0.3209,-1.0986,1.9531,0.8545
1449580,0.9448,0.0002,0.3215,-0.7324,2.4414,0.9155
1449600,0.9465,-0.009,0.3215,-0.4272,1.2207,0.9155
1449620,0.9501,-0.0148,0.3215,-0.9155,2.6855,0.5493
1449640,0.95,-0.0201,0.3218,-1.2207,2.9907,0.3052
1449660,0.9443,-0.0286,0.3123,-1.5869,2.9297,0.1221
1449680,0.9376,-0.0276,0.3098,-1.77,3.6621,0.0
1449700,0.9312,-0.0135,0.3046,-1.9531,2.9297,0.4272
1449720,0.9443,-0.0233,0.3026,-2.3804,3.418,1.5869
1449740,0.9557,-0.0312,0.2986,-3.6621,2.9297,2.4414
1449760,0.9587,-0.0294,0.2981,-4.6387,0.3662,2.9297
1449780,0.9354,-0.0115,0.2977,-5.6763,-1.5869,2.8076
1449800,0.915,0.0035,0.3037,-5.3101,-3.479,2.4414
1449820,0.9143,0.0189,0.3108,-4.9438,-4.0283,2.8687
1449840,0.9253,0.0167,0.316,-5.127,-3.418,3.3569
1449862,0.9313,0.0105,0.3186,-5.249,-2.8687,3.8452
1449882,0.9279,0.0112,0.3219,-5.6763,-2.9907,3.7842
1449902,0.9138,0.0212,0.3251,-5.0659,-3.6011,3.0518
1449924,0.8958,0.0328,0.3207,-4.3335,-3.8452,3.2959
1449944,0.8986,0.0355,0.3243,-3.3569,-2.5024,3.6011
1449964,0.9131,0.0365,0.3223,-3.54,-1.4648,3.7842
1449984,0.9189,0.0347,0.3219,-3.0518,-0.9155,4.1504
1450004,0.9187,0.0356,0.326,-2.9297,-1.2207,4.0894
1450024,0.9191,0.0526,0.3232,-2.7466,-1.709,3.8452
1450044,0.916,0.0552,0.328,-2.1973,-2.0752,3.54
1450066,0.9222,0.0465,0.3309,-1.9531,-1.8311,3.6621
1450086,0.9288,0.0377,0.3346,-1.8921,-1.9531,3.3569
1450106,0.9252,0.0371,0.3365,-2.1362,-2.7466,2.1362
1450128,0.9104,0.0468,0.3322,-2.3193,-3.3569,1.3428
1450148,0.9025,0.0536,0.334,-1.6479,-3.479,0.6714
1450169,0.9115,0.0592,0.3324,-1.4038,-2.8687,0.8545
1450189,0.9141,0.0608,0.3333,-0.9155,-2.3804,0.9155
1450210,0.9108,0.064,0.3275,-0.4272,-2.4414,0.6714
1450230,0.9095,0.0679,0.3336,0.4272,-1.4038,0.6104
1450250,0.9174,0.0688,0.327,1.2207,-1.4038,0.9155
1450270,0.9202,0.0634,0.3285,3.418,-1.77,0.9155
1450290,0.9117,0.0598,0.3322,4.5166,-1.77,0.6104
1450310,0.9105,0.0642,0.3325,6.2256,-1.3428,0.1831
1450330,0.9163,0.0602,0.3376,6.6528,-0.4272,0.2441
1450350,0.9423,0.0409,0.3409,7.8125,0.061,0.4883
1450370,0.9543,0.024,0.3455,7.8735,-0.061,0.7324
1450390,0.951,0.0168,0.3486,7.8125,-0.8545,-0.1831
1450410,0.9299,0.0221,0.34,7.2632,-1.3428,-1.6479
1450433,0.9165,0.027,0.3363,6.1646,-1.2207,-1.77
1450453,0.9082,0.0205,0.3401,4.7607,-1.2817,-1.4038
1450473,0.8999,0.0153,0.3365,3.418,-1.3428,-0.9766
1450493,0.8916,0.0198,0.3354,3.418,-1.5259,-0.4272
1450513,0.8882,0.0298,0.3337,3.479,-0.8545,-0.6104
1450533,0.8838,0.0348,0.3296,4.5166,-0.6104,-0.3052
1450556,0.8873,0.0305,0.3287,4.0894,0.9155,0.061
1450576,0.8954,0.0189,0.3331,3.6011,1.77,-0.3662
1450596,0.9119,0.0093,0.3341,3.54,3.7231,-0.9766
1450616,0.9369,0.0116,0.3287,3.54,4.3945,-1.0376
1450636,0.9458,0.0081,0.329,4.2114,3.54,-0.5493
1450656,0.9395,-0.001,0.3324,4.3335,2.2583,0.1221
1450676,0.9332,-0.0067,0.3365,3.0518,0.9155,0.7935
1450696,0.9321,-0.0052,0.3414,1.8921,0.3052,1.3428
1450716,0.9314,0.0034,0.3376,0.8545,-0.3662,2.2583
1450736,0.9291,0.0137,0.3336,0.4883,-0.7935,2.8076
1450756,0.9341,0.017,0.3309,0.4883,-1.2817,2.9907
1450776,0.9321,0.0211,0.329,0.4883,-2.0142,2.7466
1450796,0.929,0.0239,0.3314,0.4272,-2.5024,2.1973
1450817,0.9114,0.0288,0.3304,1.2207,-3.3569,1.2207
1450837,0.905,0.0291,0.3351,1.2817,-3.1128,0.8545
1450857,0.905,0.0294,0.3365,1.4038,-2.0752,0.3662
1450877,0.9104,0.0278,0.3356,0.8545,-1.4038,0.0
1450897,0.9156,0.0239,0.3337,0.6104,-1.2817,-0.4883
1450917,0.9099,0.0281,0.3418,0.4272,-1.77,-0.7935
1450938,0.9088,0.0269,0.3473,0.7935,-2.0752,-0.7935
1450958,0.9149,0.0271,0.349,1.1597,-2.3193,-1.0986
1450978,0.9215,0.0234,0.3475,1.4038,-2.4414,-0.9766
1450998,0.9208,0.0199,0.3507,1.3428,-2.8076,-0.7935
1451018,0.9111,0.0159,0.3461,1.5259,-3.2349,-0.6714
1451041,0.9043,0.0135,0.3481,1.709,-2.7466,-1.2817
1451061,0.9027,0.0153,0.3473,1.0376,-1.709,-1.6479
1451081,0.9153,0.0173,0.3446,0.3662,-1.3428,-1.709
1451101,0.9203,0.0194,0.3442,0.0,-0.8545,-1.77
1451122,0.9243,0.0186,0.3424,-0.3052,-1.0376,-2.0142
1451146,0.9202,0.0101,0.3395,-0.1221,-1.709,-1.9531
1451166,0.9138,0.0087,0.3412,-0.4272,-2.1362,-1.709
1451186,0.8967,0.0059,0.3485,-0.5493,-2.7466,-1.1597
1451208,0.8883,0.0085,0.3511,-0.1831,-2.5024,-1.0376
1451228,0.8842,0.0133,0.3536,-0.2441,-1.8311,-0.3052
1451248,0.8892,0.0135,0.3557,-0.1831,-0.5493,0.1831
1451269,0.9053,0.014,0.3541,-0.2441,-0.2441,0.5493
1451289,0.9141,0.0123,0.3508,-0.1221,-0.3662,0.8545
1451311,0.9198,0.0104,0.3519,-0.3052,-0.6104,0.6714
1451331,0.9122,0.0165,0.3541,0.5493,-1.2817,0.3662
1451351,0.9066,0.0118,0.3566,0.4272,-1.5869,0.6104
1451375,0.9033,0.0061,0.3629,0.1831,-1.2817,0.5493
1451395,0.911,0.007,0.3672,0.0,-0.9155,0.5493
1451415,0.9026,0.0117,0.3674,0.061,-0.4883,0.7324
1451435,0.8954,0.014,0.3606,0.3662,0.1221,0.7935
1451455,0.9021,0.0099,0.3568,0.4883,1.0986,0.7935
1451475,0.9059,0.0078,0.3516,-0.1831,1.2207,1.0376
1451495,0.901,0.009,0.3512,-0.3662,0.8545,0.8545
1451515,0.9009,0.0161,0.3521,0.1831,0.7935,0.8545
1451536,0.9119,0.0262,0.35,0.3662,1.1597,1.2817
1451556,0.9197,0.025,0.3508,0.3662,1.0986,1.6479
1451576,0.9241,0.0211,0.3508,0.3662,0.6714,1.8311
1451596,0.9243,0.0217,0.3533,0.7324,0.3052,1.8311
1451616,0.9199,0.0264,0.3516,1.3428,-0.1221,1.6479
1451636,0.9127,0.0242,0.3489,1.709,-0.3052,1.6479
1451656,0.9152,0.0192,0.3458,1.8311,-0.1221,1.77
1451676,0.9188,0.0192,0.3416,1.709,0.1221,1.6479
1451698,0.9128,0.0197,0.3422,1.6479,-0.1831,1.5869
1451718,0.9116,0.0211,0.3389,1.0986,-0.1831,1.2817
1451738,0.9142,0.0227,0.3381,0.9766,-0.1221,1.2207
1451758,0.9189,0.0254,0.3406,0.8545,-0.061,1.1597
1451778,0.9218,0.0242,0.3411,1.2207,-0.4272,1.0376
1451798,0.9198,0.0228,0.3408,0.9155,-0.4272,0.7935
1451818,0.9192,0.0221,0.3434,1.0376,-0.8545,0.4272
1451838,0.9183,0.0211,0.3413,0.4883,-0.8545,0.1831
1451858,0.9116,0.0188,0.3418,0.2441,-0.8545,-0.061
1451878,0.9127,0.0206,0.3451,0.1831,-0.6714,-0.2441
1451899,0.913,0.0226,0.3491,0.1221,-0.9155,-0.3052
1451919,0.9202,0.025,0.3483,0.1831,-0.7324,0.0
1451941,0.9362,0.0293,0.3464,-0.061,-0.6714,0.1831
1451961,0.9417,0.0304,0.3464,-0.061,-0.7935,0.4883
1451981,0.9467,0.0316,0.3483,-0.061,-1.2817,0.4272
1452001,0.9429,0.0354,0.3422,0.4272,-1.709,0.1221
1452021,0.9333,0.0356,0.3478,1.0986,-2.7466,0.0
1452041,0.9219,0.0327,0.3496,1.4038,-3.8452,0.3662
1452061,0.9116,0.0336,0.3459,1.709,-4.4556,0.6104
1452081,0.8888,0.0273,0.3435,2.2583,-3.9062,0.9766
1452101,0.8843,0.0186,0.3412,2.1973,-3.418,1.1597
1452121,0.8917,0.0201,0.343,2.1973,-2.6245,1.2817
1452144,0.8965,0.025,0.3458,2.3193,-2.6245,1.5259
1452164,0.9011,0.0233,0.349,2.3193,-2.5024,1.4038
1452184,0.9015,0.0175,0.3519,2.0142,-2.9297,1.2207
1452204,0.9011,0.0129,0.3583,1.6479,-2.9907,0.9155
1452224,0.9033,0.0125,0.369,1.3428,-2.9907,0.6104
1452244,0.9033,0.012,0.3729,1.0986,-3.1738,-0.061
1452264,0.9133,0.011,0.3757,0.9155,-2.9297,-0.3052
1452284,0.9172,0.011,0.3773,0.3052,-2.5635,-0.3052
1452304,0.9188,0.015,0.3779,-0.1221,-2.8076,-0.1221
1452324,0.9153,0.0168,0.3754,-0.2441,-3.2349,-0.1221
1452344,0.9126,0.0178,0.3774,-0.5493,-2.8687,-0.1831
1452364,0.9003,0.0198,0.3801,-0.1221,-2.7466,-0.4272
1452384,0.8959,0.0153,0.38,0.0,-1.8921,-0.6104
1452406,0.889,0.0162,0.3799,-0.3052,-1.2817,-1.0986
1452426,0.8865,0.0214,0.3754,0.061,-0.9766,-1.3428
1452446,0.8828,0.02,0.3827,-0.2441,-0.9155,-1.3428
1452466,0.8727,0.0156,0.3781,-0.2441,-0.1221,-0.8545
1452486,0.8601,0.0111,0.3812,-0.3052,1.709,-0.1831
1452506,0.8605,0.0121,0.3907,-0.2441,3.7231,0.3662
1452526,0.8844,0.0148,0.3849,0.1221,5.7983,0.9155
1452546,0.894,0.0225,0.3782,0.3052,7.8735,0.9155
1452567,0.9076,0.0231,0.3773,0.6104,7.7515,0.7324
1452587,0.9233,0.0244,0.3694,0.9155,7.2021,0.4272
1452607,0.9336,0.0212,0.3679,1.4038,5.3711,0.4883
1452627,0.9258,0.0116,0.3658,1.709,3.0518,0.6714
1452647,0.9146,0.0093,0.3612,1.6479,1.8921,0.8545
1452667,0.9094,0.0081,0.359,1.1597,2.8687,1.0986
1452687,0.9122,0.011,0.3561,1.0986,1.5869,0.7324
1452707,0.9037,0.0155,0.3514,1.2817,0.0,0.7935
1452729,0.896,0.0162,0.3463,1.0986,-0.1221,0.4272
1452749,0.8895,0.0184,0.3448,1.1597,0.3662,0.3052
1452769,0.8971,0.0215,0.3383,-0.3662,4.5166,0.3662
1452793,0.9108,0.0214,0.335,0.1831,0.0,-0.061
1452813,0.9146,0.0194,0.3302,0.061,0.1221,-0.6714
1452833,0.9136,0.019,0.3352,-0.1221,2.0752,-0.6104
1452853,0.9183,0.0148,0.335,0.1831,0.4272,-0.5493
1452873,0.9222,0.0186,0.3364,0.5493,0.1831,-0.4883
1452893,0.923,0.0215,0.3436,0.6714,0.0,-0.1831
1452914,0.9272,0.0262,0.3451,1.0986,-0.3662,0.1221
1452934,0.9283,0.0264,0.347,1.0986,-0.3052,0.4883
1452956,0.9246,0.0236,0.3467,1.5259,-0.5493,0.8545
1452976,0.9205,0.0225,0.3452,1.5869,-0.4883,0.7935
1452996,0.9132,0.0206,0.343,1.9531,-0.8545,0.9766
1453020,0.9069,0.0181,0.3472,2.0142,-0.6104,0.8545
1453040,0.9149,0.0175,0.3473,1.9531,-0.3662,1.0376
1453060,0.9225,0.0178,0.3456,1.709,-0.6714,0.9766
1453080,0.9194,0.0144,0.3459,1.2207,-1.0986,0.9766
1453100,0.9178,0.0167,0.3458,1.2817,-1.5869,0.9155
1453120,0.9139,0.0148,0.3468,1.6479,-2.3193,1.1597
1453140,0.915,0.0157,0.3533,1.5259,-2.4414,1.3428
1453160,0.9081,0.0144,0.3523,1.4648,-2.4414,1.4648
1453180,0.9084,0.0165,0.3491,1.0986,-1.5259,1.0376
1453200,0.91,0.0179,0.3486,1.0376,-1.2817,0.7324
1453220,0.9088,0.0159,0.3486,0.8545,-0.9766,0.4272
1453240,0.9078,0.01,0.3506,0.6714,-0.9155,0.3052
1453260,0.9071,0.01,0.3522,0.3052,-0.7935,0.3052
1453280,0.9072,0.0125,0.3514,0.1221,-0.4883,0.1221
1453300,0.9078,0.0156,0.3521,-0.1831,-0.7324,0.2441
1453320,0.9082,0.0159,0.3544,-0.3052,-0.4883,0.3052
1453340,0.912,0.0162,0.3549,-0.2441,-0.7935,0.3662
1453360,0.9156,0.0201,0.3546,-0.1221,-0.9766,0.2441
1453380,0.9146,0.0226,0.3531,0.0,-1.2817,0.1221
1453400,0.9132,0.0244,0.3547,0.1831,-1.1597,0.3662
1453420,0.9108,0.0217,0.3557,0.4883,-1.2817,0.6104
1453440,0.9037,0.0197,0.355,0.5493,-1.4038,0.9155
1453463,0.9017,0.0215,0.3577,0.3052,-1.2817,0.8545
1453483,0.9054,0.0227,0.3571,0.6104,-1.0376,0.9155
1453503,0.9071,0.0244,0.3551,0.6104,-1.0376,0.8545
1453523,0.9072,0.024,0.3547,0.7935,-1.0376,0.8545
1453545,0.9135,0.0223,0.3563,0.7324,-1.0376,0.7324
1453565,0.9159,0.0284,0.3575,0.6714,-0.9766,0.7935
1453586,0.9131,0.0195,0.3569,1.2207,-1.2817,0.9766
1453608,0.9174,0.0168,0.3567,0.7324,-1.2207,0.7935
1453628,0.9148,0.0232,0.3574,0.8545,-1.2207,0.7324
1453649,0.9091,0.024,0.3599,0.7935,-1.4038,0.6104
1453671,0.9056,0.0243,0.359,0.9766,-1.2817,0.6714
1453691,0.9033,0.0208,0.3605,0.9155,-1.3428,0.8545
1453711,0.8987,0.0236,0.3628,0.8545,-0.9155,0.8545
1453731,0.9016,0.0229,0.3635,1.2817,-0.7935,0.6104
1453751,0.9038,0.0244,0.3623,1.0376,-0.9155,0.6714
1453771,0.9077,0.021,0.3624,1.0376,-0.9155,0.7935
1453791,0.9037,0.0195,0.3601,1.0986,-0.9766,0.6714
1453811,0.9033,0.0204,0.3606,0.7935,-0.8545,0.5493
1453831,0.9058,0.0215,0.3606,0.7935,-0.7324,0.6104
1453851,0.9036,0.0239,0.3652,0.7324,-0.7935,0.6104
1453872,0.9114,0.0221,0.3632,0.9155,-0.7935,0.5493
1453892,0.9208,0.0237,0.3625,0.5493,-0.2441,0.5493
1453912,0.9136,0.0256,0.3612,0.6104,-0.3052,0.4883
1453932,0.9147,0.0267,0.3607,1.0376,-0.8545,0.4272
1453952,0.9103,0.0259,0.3605,0.9155,-1.0376,0.2441
1453972,0.9032,0.0232,0.3567,0.9155,-0.9766,0.1831
1453994,0.8951,0.0209,0.3588,1.0376,-0.9155,0.1831
1454014,0.8918,0.0205,0.3567,0.6714,-0.6104,0.2441
1454034,0.9001,0.0181,0.3586,0.4272,-0.3662,0.1221
1454054,0.9037,0.0186,0.3596,0.3052,-0.3052,0.3662
1454074,0.9111,0.0193,0.3629,0.0,-0.061,0.5493
1454094,0.913,0.0227,0.3596,0.2441,-0.1831,0.4883
1454115,0.9122,0.0254,0.3615,0.2441,-0.7935,0.4883
1454135,0.9115,0.0253,0.361,0.4883,-0.8545,0.2441
1454155,0.9054,0.0234,0.3612,0.4272,-0.8545,0.3662
1454175,0.9104,0.024,0.3593,0.5493,-0.9155,0.3662
1454195,0.9138,0.0231,0.3634,0.6714,-0.4883,0.4272
1454215,0.912,0.021,0.3632,0.5493,-0.7935,0.4272
1454235,0.9047,0.0215,0.3602,0.4272,-0.9766,0.6104
1454255,0.9015,0.0214,0.3608,0.8545,-1.1597,0.4272
1454295,0.8917,0.0223,0.3596,1.3428,-0.6104,0.3052
1454315,0.8943,0.0214,0.36,0.9155,0.061,0.3052
1454335,0.9078,0.0256,0.3574,0.4883,0.4883,-0.1221
1454355,0.9082,0.0229,0.3591,1.1597,-0.4272,-0.1221
1454375,0.9106,0.016,0.3623,0.9766,-0.1221,-0.061
1454415,0.9142,0.0248,0.3644,1.3428,-0.9155,0.1831
1454435,0.9132,0.0253,0.3682,1.4038,-0.6104,0.2441
1454456,0.9178,0.0243,0.3695,1.4038,-0.6104,0.1831
1454476,0.9188,0.0215,0.3707,1.5869,-0.6714,0.2441
1454536,0.9045,0.0265,0.3643,1.5869,-0.7935,0.4272
1454566,0.9004,0.0221,0.3623,1.8311,-1.0376,0.5493
1454586,0.9017,0.0215,0.3612,1.4648,-0.6714,0.3662
1454606,0.9033,0.0227,0.36,1.2207,-0.4883,0.2441
1454626,0.9028,0.0223,0.3627,1.2817,-0.3052,0.0
1454646,0.9038,0.0149,0.3623,1.4038,-0.4272,-0.1831
1454670,0.9022,0.0161,0.3651,1.0986,-0.4272,-0.3662
1454690,0.8986,0.0166,0.3677,1.0986,-0.3052,0.061
1454710,0.8982,0.015,0.3652,0.7324,0.4883,0.1221
1454730,0.9156,0.0137,0.3625,0.1831,1.2207,0.1221
1454750,0.9277,0.0192,0.3617,0.1831,1.3428,0.061
1454773,0.9281,0.0251,0.3575,0.4272,0.1831,-0.7324
1454793,0.92,0.0209,0.3616,0.6714,-0.9155,-0.8545
1454813,0.9071,0.0142,0.3618,0.7324,-0.7324,-0.9155
1454833,0.9003,0.0134,0.3616,0.5493,-0.6104,-0.7324
1454853,0.8972,0.0154,0.358,0.5493,-0.1221,-0.3662
1454874,0.8986,0.0148,0.3549,0.6104,-0.1221,-0.3052
1454894,0.8964,0.0149,0.356,0.7324,-0.3052,-0.4883
1454914,0.9015,0.0181,0.3625,1.1597,-0.1221,-0.4272
1454934,0.9072,0.021,0.3584,1.2817,-0.4272,-0.4272
1454954,0.9109,0.0171,0.3608,1.4648,-0.7324,-0.1221
1454974,0.9076,0.0133,0.3624,1.0986,-0.9766,0.2441
1454994,0.906,0.012,0.3643,1.4038,-0.7935,0.4272
1455018,0.9093,0.0131,0.3629,1.2817,-0.4272,0.3052
1455038,0.9159,0.0155,0.3573,1.709,-0.5493,0.2441
1455058,0.9131,0.0182,0.3561,1.4038,-1.1597,0.3662
1455078,0.9083,0.0093,0.3605,1.6479,-1.0986,0.4883
1455098,0.9094,0.0049,0.3634,1.2817,-0.9766,0.4883
1455118,0.9105,0.0107,0.3649,1.3428,-0.9766,0.4883
1455138,0.9048,0.0135,0.3677,1.4038,-1.2817,0.3052
1455158,0.9026,0.0139,0.3682,1.1597,-0.6104,0.3662
1455179,0.9109,0.0114,0.3636,1.1597,-0.6104,0.3052
1455199,0.9139,0.0093,0.3645,1.2207,-0.6104,0.3662
1455219,0.9108,0.0094,0.365,1.2207,-1.2817,0.1221
1455239,0.8978,0.0122,0.3634,1.8311,-1.5869,0.2441
1455259,0.8954,0.0167,0.3669,2.0142,-1.2207,0.2441
1455281,0.9034,0.0157,0.3646,2.3193,-0.4272,0.3052
1455301,0.9087,0.0139,0.366,2.4414,-0.7935,0.6714
1455321,0.9113,0.0204,0.3634,2.7466,-1.2207,1.2817
1455341,0.9114,0.0157,0.3634,3.2349,-1.5869,1.4648
1455361,0.9133,0.0111,0.3647,3.1128,-1.3428,1.3428
1455384,0.9128,0.0107,0.3618,2.8076,-1.5869,1.2817
1455404,0.905,0.0087,0.366,2.5024,-1.77,1.4038
1455424,0.9075,0.0063,0.3649,1.8921,-1.6479,1.3428
1455444,0.9095,0.006,0.3666,1.4648,-1.4038,1.4038
1455464,0.9077,0.0071,0.3657,1.2207,-1.4038,1.0376
1455484,0.9033,0.0088,0.3677,1.0376,-1.5869,1.0376
1455504,0.8983,0.0068,0.368,0.6714,-1.5869,0.9155
1455527,0.8925,0.006,0.3687,0.4272,-1.5259,0.8545
1455547,0.892,0.0056,0.3716,-0.3662,-1.2817,0.3662
1455567,0.8931,0.0051,0.376,-0.8545,-1.1597,0.3052
1455587,0.8949,0.01,0.3611,-1.3428,-0.9766,0.061
1455607,0.899,0.0135,0.3728,-1.5869,-0.6714,-0.2441
1455627,0.9019,0.0117,0.3721,-1.6479,-0.3662,-0.5493
1455647,0.9108,0.0142,0.3793,-1.6479,-0.1831,-0.6714
1455667,0.9169,0.0186,0.3772,-1.0986,-0.3662,-0.7935
1455687,0.9165,0.0182,0.3768,-0.4272,-0.5493,-0.6104
1455707,0.9114,0.0205,0.3739,-0.2441,-0.7935,-0.5493
1455727,0.9034,0.0189,0.3727,-0.061,-1.1597,-0.1221
1455747,0.903,0.0126,0.371,0.0,-1.0986,0.2441
1455768,0.9034,0.007,0.3745,0.0,-0.7935,0.4883
1455788,0.9058,0.0128,0.3788,0.6104,-1.0376,0.7935
1455809,0.9003,0.0211,0.3756,0.9155,-1.2817,0.6104
1455829,0.8917,0.0192,0.3762,0.9155,-0.9766,0.7935
1455849,0.889,0.0161,0.3755,1.2207,-0.4883,0.6714
1455870,0.89,0.014,0.3755,1.0986,-0.4272,0.6714
1455890,0.8893,0.0121,0.3767,1.1597,-0.061,0.6714
1455910,0.8926,0.0112,0.3746,0.9766,-0.3052,0.6104
1455934,0.8986,0.0106,0.3741,0.8545,-0.3662,0.9155
1455954,0.9016,0.0096,0.3773,0.7324,-0.5493,0.9766
1455975,0.9044,0.0085,0.3788,0.7324,-0.6104,1.2207
1455996,0.9045,0.0111,0.3774,0.7324,-0.9766,0.9155
1456016,0.9004,0.0094,0.3804,0.5493,-0.4883,0.8545
1456036,0.9073,0.0127,0.3813,0.2441,-0.5493,0.7324
1456056,0.908,0.019,0.38,0.1221,-0.6714,0.4883
1456076,0.9033,0.0197,0.3672,-0.1221,-0.7935,0.3662
1456097,0.9008,0.0232,0.3722,-0.9155,-0.9155,0.0
1456117,0.9078,0.0216,0.3717,-0.5493,-0.7324,-0.3052
1456137,0.9142,0.0223,0.3651,-0.4272,-0.7935,-0.4883
1456157,0.9108,0.0162,0.3645,0.0,-0.6714,-0.7935
1456177,0.9065,0.0171,0.3673,-0.1221,-0.3662,-0.6714
1456200,0.9005,0.0194,0.3706,-0.4883,-0.1221,-0.4883
1456220,0.901,0.019,0.3702,-0.7935,0.2441,-0.3662
1456240,0.9011,0.0159,0.3696,-0.2441,0.0,-0.2441
1456260,0.9028,0.0109,0.3666,0.5493,0.1831,0.3052
1456280,0.8978,0.0076,0.3666,0.7324,0.3052,0.6104
1456300,0.8889,0.0056,0.3716,1.2817,0.5493,1.3428
1456324,0.8895,0.0073,0.3796,0.8545,1.3428,1.8921
1456344,0.8954,0.0042,0.3721,-0.1221,2.4414,0.9155
1456364,0.9053,0.0092,0.3693,-1.0986,2.6245,0.2441
1456384,0.9257,0.0236,0.3657,-1.1597,1.4648,-0.9155
1456404,0.9303,0.0232,0.3652,-1.2207,0.3052,-1.3428
1456424,0.9191,0.0093,0.3713,-1.2207,-0.2441,-1.8921
1456444,0.9205,0.0117,0.3785,-1.2207,-0.1221,-1.9531
1456464,0.9121,0.0165,0.382,-0.7324,0.0,-1.4038
1456484,0.9052,0.0199,0.3796,-0.7324,0.1831,-0.9155
1456504,0.9072,0.0189,0.3785,-0.5493,0.3662,-0.2441
1456527,0.9117,0.0139,0.3738,-0.4272,0.6714,0.2441
1456548,0.9089,0.0144,0.3737,-0.1831,0.3662,0.1221
1456568,0.912,0.0208,0.368,0.2441,0.4272,0.2441
1456588,0.9125,0.0255,0.3651,0.3052,-0.3052,0.6104
1456608,0.9105,0.0314,0.3689,0.9155,-0.7935,0.9155
1456628,0.9135,0.0312,0.3673,1.1597,-1.0986,0.8545
1456650,0.9086,0.0295,0.368,1.6479,-1.2817,1.0376
1456670,0.891,0.0251,0.373,1.77,-1.2207,0.4272
1456692,0.8895,0.0151,0.3723,1.1597,-0.3052,-0.2441
1456712,0.8938,0.0151,0.3676,0.5493,0.3052,-0.5493
1456735,0.8945,0.024,0.3649,0.7324,0.3052,-1.3428
1456756,0.8933,0.0236,0.3639,0.9155,-0.061,-1.4648
1456776,0.892,0.0178,0.3612,0.4883,0.0,-1.5869
1456796,0.8977,0.0149,0.3577,0.3052,0.6104,-1.709
1456816,0.899,0.0176,0.3572,0.3662,0.4272,-1.8921
1456839,0.895,0.0127,0.3602,0.6714,0.0,-1.9531
1456859,0.8995,0.0081,0.3618,0.6104,0.4883,-2.0142
1456879,0.9036,0.0066,0.3588,0.1221,0.7935,-2.0142
1456899,0.9076,0.0077,0.3591,0.0,0.6714,-2.0752
1456921,0.9125,0.0045,0.3611,0.1831,0.3052,-2.0142
1456941,0.908,0.0039,0.3636,-0.1831,-0.061,-1.9531
1456961,0.9072,0.0031,0.3639,0.2441,0.0,-1.8311
1456981,0.9105,0.0015,0.3629,0.3052,0.1221,-1.5869
1457001,0.9164,0.0002,0.36,0.3052,0.2441,-1.4648
1457021,0.9156,-0.0007,0.3583,0.4272,0.061,-1.4038
1457041,0.9176,-0.0017,0.3563,0.2441,-0.1831,-1.4648
1457063,0.9141,-0.0013,0.3561,0.3052,-0.4272,-1.3428
1457083,0.9084,-0.0051,0.3568,0.1831,-0.9155,-0.9155
1457103,0.9128,-0.0065,0.3602,-0.061,-0.8545,-0.7324
1457123,0.9095,-0.0032,0.3632,0.3052,-0.9766,-0.5493
1457143,0.9045,-0.0012,0.3612,0.3052,-0.9766,-0.3662
1457163,0.9023,-0.0009,0.3591,0.4883,-0.8545,-0.3662
1457183,0.9054,-0.0024,0.3604,0.4883,-0.6104,0.1831
1457203,0.9059,-0.0026,0.3647,0.6714,-0.3052,0.3052
1457224,0.9071,-0.002,0.3643,0.9155,-0.6714,0.6104
1457244,0.9093,-0.0009,0.3624,0.9155,-0.6104,0.6714
1457264,0.9133,-0.0012,0.3606,1.0986,-0.7324,1.0376
1457284,0.915,0.0,0.3607,0.9155,-0.8545,1.0376
1457304,0.9139,0.0005,0.3624,1.1597,-1.0376,1.2817
1457324,0.9121,-0.0015,0.3616,0.7935,-0.9766,1.3428
1457344,0.9084,-0.0006,0.3622,0.8545,-0.8545,1.2817
1457364,0.9369,-0.0039,0.3578,0.9155,-0.7935,1.2207
1457384,0.9075,-0.0038,0.3606,0.4272,-0.2441,1.2817
1457404,0.9067,0.0001,0.3553,0.6104,-0.3662,1.2817
1457427,0.9066,-0.0001,0.3584,0.2441,-0.6714,1.0986
1457447,0.9056,-0.0017,0.3585,0.1831,-0.6714,0.9766
1457467,0.9033,-0.0055,0.3573,-0.1831,-0.5493,0.9766
1457487,0.9022,-0.0048,0.3597,-0.4272,-0.1221,0.5493
1457508,0.9048,-0.0001,0.3635,-0.1831,0.5493,0.3052
1457528,0.9078,0.0055,0.3628,-0.1831,0.7935,0.061
1457548,0.9115,0.006,0.3591,-0.4883,0.8545,0.1221
1457568,0.9141,0.0074,0.3608,-0.4883,0.6714,0.1221
1457588,0.9142,0.0063,0.3634,-0.4883,0.5493,0.2441
1457610,0.9108,0.0101,0.3661,-0.6104,-0.2441,0.4272
1457630,0.9043,0.0118,0.3671,0.061,-0.9155,0.7935
1457650,0.9038,0.0107,0.3635,0.1831,-0.8545,0.8545
1457670,0.9033,0.0107,0.363,0.6714,-0.9155,0.9155
1457690,0.9043,0.0122,0.3646,1.0376,-0.6104,1.1597
1457710,0.9093,0.0121,0.3605,0.9766,-0.6714,1.1597
1457730,0.9186,0.0271,0.3574,0.6104,-0.6714,1.4648
1457750,0.9237,0.0336,0.3645,0.4883,-0.9155,1.3428
1457770,0.9432,0.0106,0.358,1.709,-2.0752,1.9531
1457790,0.9518,0.0116,0.3652,2.5635,-3.6011,3.1128
1457810,0.9496,0.0173,0.3717,2.6245,-4.3335,3.7231
1457830,0.9307,0.0179,0.3789,2.3804,-4.7607,3.8452
1457850,0.9117,0.0143,0.3796,2.1973,-3.7842,3.6621
1457870,0.9034,0.0134,0.3782,2.1973,-3.418,3.479
1457890,0.897,0.0154,0.3749,2.6855,-3.54,3.2349
1457910,0.8907,0.0146,0.3733,2.5024,-3.1738,2.6245
1457934,0.8833,0.0077,0.3701,2.3804,-2.6855,1.8921
1457954,0.8801,0.0081,0.3674,2.1362,-1.6479,1.3428
1457977,0.8724,0.0095,0.3673,2.1973,-1.2817,0.9766
1457997,0.8673,0.0055,0.3688,1.8311,-0.9766,0.8545
1458017,0.8663,0.0023,0.3698,1.6479,-0.8545,0.9155
1458037,0.8813,-0.0032,0.3699,0.9155,0.4272,0.7324
1458057,0.8866,-0.0038,0.3678,0.5493,-0.3662,0.5493
1458077,0.8906,-0.0001,0.3706,0.3052,-0.1221,0.3662
1458097,0.8881,0.004,0.3794,0.2441,-0.6104,0.4272
1458118,0.8943,0.005,0.3812,0.0,-0.4272,0.7935
1458139,0.8982,0.0061,0.3802,-0.3662,-0.1831,0.9155
1458159,0.9014,0.0062,0.381,-0.4883,-0.3052,1.4648
1458179,0.9049,0.0083,0.3811,-0.2441,-0.4272,1.6479
1458199,0.9047,0.0098,0.3795,-0.1221,-0.4272,1.77
1458219,0.9038,0.0132,0.3798,0.2441,-0.2441,2.0142
1458242,0.9066,0.0164,0.3743,0.9766,-0.3052,2.3804
1458262,0.905,0.0167,0.3704,1.0376,-0.4883,2.8076
1458282,0.9005,0.015,0.3716,1.5869,-0.6714,2.9297
1458302,0.8988,0.0154,0.3706,1.4038,-0.6104,2.8076
1458322,0.9034,0.0182,0.3708,1.2207,-0.1221,2.6855
1458342,0.9076,0.0184,0.3716,1.0986,0.1831,2.5635
1458363,0.9053,0.0199,0.3721,0.6714,-0.2441,2.4414
1458383,0.8984,0.0211,0.373,0.7324,-0.5493,2.3804
1458403,0.8979,0.0237,0.3737,0.5493,-0.1221,2.1362
1458427,0.9012,0.0281,0.3713,0.5493,0.0,1.8311
1458447,0.9043,0.0282,0.3704,0.2441,-0.1221,1.5869
1458467,0.9073,0.0267,0.3723,0.1831,0.0,1.5869
1458487,0.9055,0.0325,0.3723,0.5493,-0.3052,1.2817
1458509,0.9019,0.0273,0.3662,0.9766,-0.7324,1.3428
1458529,0.9076,0.0242,0.3656,0.3052,-0.2441,1.2207
1458549,0.9094,0.0321,0.368,0.1221,-0.1831,1.3428
1458569,0.9027,0.0332,0.3756,0.2441,-0.4883,1.1597
1458589,0.9033,0.0314,0.3737,0.8545,-0.4883,1.2207
1458609,0.9037,0.0277,0.3726,0.8545,-0.5493,1.6479
1458629,0.9003,0.0288,0.3728,0.7935,-0.7935,1.709
1458649,0.9006,0.0302,0.3751,0.7324,-0.6714,1.3428
1458669,0.9045,0.0322,0.3762,0.8545,-0.6714,1.1597
1458689,0.9033,0.0308,0.3738,0.8545,-0.7324,1.0986
1458709,0.9001,0.0283,0.3759,0.8545,-0.7935,0.9155
1458729,0.8977,0.0289,0.3745,0.9766,-0.8545,0.8545
1458749,0.8947,0.0286,0.3733,0.9155,-0.4272,0.7324
1458769,0.8948,0.0272,0.3755,0.7324,-0.6104,0.6104
1458789,0.9054,0.0276,0.3713,0.6714,-0.3052,0.4272
1458809,0.9127,0.0304,0.3722,0.4883,-0.3052,0.0
1458829,0.912,0.0334,0.3704,0.4272,-0.6104,-0.3052
1458849,0.908,0.0336,0.3745,0.6714,-0.8545,-0.2441
1458869,0.9028,0.0319,0.3771,0.5493,-0.7935,-0.061
1458889,0.9005,0.0299,0.3752,0.5493,-0.4272,-0.061
1458909,0.8961,0.0284,0.3752,0.4883,-0.4883,0.061
1458929,0.8967,0.0289,0.3726,0.7324,-0.3662,-0.1831
1458949,0.9021,0.0282,0.3689,0.7324,-0.1831,-0.1221
1458969,0.902,0.0277,0.3708,0.4883,-0.4883,-0.1831
1458989,0.8973,0.0261,0.3739,0.9155,-0.6104,-0.1221
1459009,0.8966,0.0283,0.3773,0.9155,-0.6714,-0.061
1459029,0.9001,0.0283,0.3776,0.9155,-0.3052,0.1221
1459049,0.9037,0.0288,0.377,0.8545,-0.2441,0.1831
1459072,0.905,0.0271,0.3759,0.7324,-0.1831,0.1831
1459092,0.9082,0.0231,0.3776,0.6714,-0.6104,0.2441
1459116,0.912,0.0231,0.379,0.4883,-0.6714,0.6714
1459136,0.9095,0.0237,0.3756,0.3052,-0.9766,0.8545
1459156,0.9038,0.024,0.3777,0.3662,-1.1597,0.9766
1459176,0.9111,0.0292,0.3776,0.5493,-1.0986,1.0986
1459196,0.9105,0.0302,0.3752,0.6714,-1.0986,1.0376
1459216,0.8954,0.0201,0.373,0.6714,-1.4038,0.9155
1459236,0.8936,0.0201,0.3683,0.2441,-1.0376,0.5493
1459256,0.8881,0.0298,0.3701,0.6104,-1.0376,0.0
1459277,0.8831,0.0247,0.3662,0.7935,-0.9155,0.1221
1459297,0.8813,0.0229,0.368,0.5493,-0.1221,0.1221
1459317,0.8813,0.0277,0.3713,0.6714,-0.1221,0.3662
1459337,0.8804,0.0248,0.377,0.4272,0.061,0.4883
1459357,0.8917,0.0244,0.3794,0.4883,0.3662,0.6714
1459377,0.8998,0.0261,0.3806,0.7324,0.4883,0.7935
1459399,0.9083,0.0275,0.3857,0.6714,0.3052,0.9155
1459419,0.9126,0.0293,0.3833,0.6104,0.3662,1.0376
1459439,0.9111,0.0319,0.3831,0.9766,0.4272,0.9155
1459459,0.912,0.0333,0.3795,1.3428,0.4272,1.0376
1459483,0.9092,0.0352,0.3774,1.5259,0.5493,1.1597
1459503,0.905,0.0334,0.3726,1.709,0.2441,1.2207
1459523,0.8979,0.0336,0.3622,1.4038,0.3662,1.2207
1459544,0.8942,0.0348,0.374,1.6479,0.5493,1.3428
1459564,0.9054,0.0348,0.3715,2.0752,1.1597,1.4038
1459584,0.9188,0.0314,0.3677,2.4414,0.9766,1.5869
1459604,0.9155,0.0291,0.3662,2.5024,0.1831,1.8311
1459624,0.9131,0.0272,0.3655,2.2583,-0.1831,1.77
1459644,0.9072,0.025,0.3683,1.77,-0.3052,1.2817
1459664,0.9014,0.0227,0.3685,1.6479,-0.4272,1.2207
1459684,0.8934,0.0203,0.3682,1.3428,-0.3662,1.0986
1459704,0.8928,0.0188,0.3691,1.0986,0.1221,0.6714
1459724,0.8973,0.0233,0.3688,0.6104,0.3052,0.6714
1459744,0.8994,0.0282,0.3668,0.1831,0.2441,0.6104
1459764,0.8998,0.0299,0.3687,-0.061,0.1221,0.4883
1459784,0.9014,0.0333,0.3708,-0.061,0.0,0.3662
1459804,0.9021,0.0347,0.3701,0.3662,0.3052,0.1221
1459825,0.8998,0.0321,0.3704,0.4272,0.0,0.061
1459845,0.8984,0.0287,0.3728,0.7324,-0.2441,-0.061
1459865,0.9066,0.0275,0.3715,0.3052,0.3662,-0.061
1459885,0.9054,0.0282,0.3728,0.4272,0.4883,0.1221
1459927,0.9052,0.0297,0.3745,0.1221,1.2207,0.4883
1459947,0.9124,0.0347,0.3712,-0.1221,1.709,0.6104
1459967,0.9191,0.0425,0.3644,0.5493,1.0986,0.4883
1459990,0.9178,0.0433,0.3657,0.6714,0.6714,-0.1221
1460010,0.9066,0.0321,0.3635,1.1597,0.4272,-0.1831
1460033,0.9073,0.0192,0.3534,0.5493,0.6104,0.3662
1460053,0.9109,0.0247,0.3486,-0.3052,0.7324,0.061
1460073,0.9102,0.0314,0.3517,-0.6714,0.3052,0.1221
1460093,0.9042,0.0341,0.3541,-0.9155,-0.4272,-0.061
1460116,0.8992,0.0363,0.3579,-0.6104,-0.5493,-0.1831
1460136,0.9019,0.0399,0.3561,-0.5493,-0.6104,-0.1221
1460156,0.9032,0.0392,0.3605,-0.7935,-0.3662,-0.3052
1460176,0.9036,0.0388,0.3638,-0.9155,0.0,-0.6714
1460196,0.9015,0.0377,0.3683,-0.7324,0.2441,-0.9155
1460216,0.8976,0.0381,0.3658,-0.2441,0.4883,-0.9155
1460236,0.8928,0.0378,0.3636,0.4883,0.5493,-1.0376
1460256,0.887,0.0367,0.3617,0.9766,0.6104,-0.7935
1460276,0.8866,0.0355,0.361,1.2817,1.2817,-0.6714
1460296,0.8873,0.0286,0.3602,1.1597,1.5259,-0.3662
1460316,0.8993,0.025,0.3563,0.7935,2.5024,-0.4883
1460336,0.9115,0.0236,0.3577,0.6104,2.3804,-0.9155
1460357,0.9147,0.0181,0.3564,0.061,2.4414,-1.4648
1460377,0.9193,0.0135,0.3547,-0.3052,2.6245,-2.1973
1460397,0.9198,0.0135,0.3517,-0.9766,2.8076,-2.8076
1460418,0.9092,0.0162,0.3556,-0.9155,2.8076,-2.9297
1460438,0.9055,0.016,0.3501,-1.5259,3.2349,-2.5024
1460458,0.8994,0.0098,0.3535,-1.8921,3.7231,-2.0752
1460478,0.9,0.0059,0.3563,-1.5869,4.8218,-1.9531
1460498,0.9021,0.0076,0.3601,-1.3428,6.2256,-2.1362
1460518,0.9058,0.0157,0.3544,-1.4648,7.3853,-2.1362
1460538,0.9032,0.0294,0.344,-1.8311,7.6294,-2.5635
1460558,0.9049,0.0212,0.3456,-1.8921,7.9956,-2.6245
1460578,0.9307,0.0009,0.3398,-2.4414,8.5449,-2.6245
1460598,0.9419,-0.0033,0.3359,-2.7466,7.0801,-2.5024
1460618,0.9404,0.0028,0.328,-2.2583,5.7373,-2.1362
1460638,0.936,0.0182,0.3219,-2.5635,3.9062,-1.2817
1460658,0.936,0.0223,0.3181,-2.6245,3.479,-0.6104
1460678,0.9276,0.0284,0.319,-2.1362,2.3804,0.2441
1460698,0.9219,0.0293,0.3164,-1.2817,1.1597,1.0986
1460719,0.9233,0.0295,0.3136,-0.6714,1.2207,1.4038
1460739,0.9298,0.0295,0.3138,0.1831,0.4272,2.0752
1460759,0.9287,0.0238,0.3141,0.4883,0.0,2.2583
1460779,0.9275,0.0206,0.314,0.5493,-0.4272,2.1973
1460799,0.9221,0.0256,0.3125,0.9155,-1.4038,2.1973
1460819,0.9258,0.0238,0.316,0.9766,-1.4038,2.1973
1460839,0.9229,0.0194,0.3142,1.5259,-1.3428,2.4414
1460859,0.9205,0.0181,0.3215,1.4648,-1.2817,2.6245
1460879,0.9152,0.0198,0.3275,1.0986,-0.8545,3.1128
1460899,0.9199,0.0182,0.3267,0.4272,-0.4272,3.6621
1460919,0.9257,0.0198,0.3198,0.4272,-0.7935,3.9062
1460939,0.928,0.0265,0.3235,0.2441,-1.3428,3.479
1460959,0.9271,0.0326,0.3217,0.7935,-1.6479,3.0518
1460979,0.9139,0.0427,0.3286,1.2817,-2.0752,2.3193
1460999,0.9146,0.0476,0.3262,0.9155,-1.5869,1.9531
1461019,0.9156,0.047,0.3387,0.8545,-1.709,1.8311
1461039,0.9377,0.0316,0.3365,0.4272,-2.5635,1.4648
1461059,0.9347,0.0325,0.3318,0.6104,-5.127,0.9155
1461079,0.8909,0.0665,0.3464,1.8311,-5.188,-0.4883
1461099,0.8943,0.0903,0.3534,4.3335,-1.5869,-1.8921
1461119,0.9055,0.0802,0.3485,5.9814,-0.1221,-1.9531
1461139,0.9189,0.0616,0.3397,6.4087,1.6479,-1.5259
1461159,0.924,0.0474,0.3373,6.0425,3.0518,-1.77
1461179,0.951,0.0337,0.3381,5.7373,3.1128,-2.5635
1461199,0.962,0.0219,0.3295,6.3477,1.5869,-3.7842
1461221,0.9431,0.0153,0.3228,8.3008,-0.1831,-5.0659
1461241,0.9263,0.0083,0.3107,8.1177,-1.0376,-5.4932
1461265,0.9106,-0.0101,0.3132,6.7749,-0.9155,-5.7373
1461285,0.9185,-0.0195,0.3104,4.6387,0.3662,-5.6763
1461305,0.9154,-0.0275,0.3105,2.5024,0.3052,-5.9204
1461325,0.91,-0.0306,0.3134,1.2817,-0.2441,-5.7373
1461345,0.9116,-0.0356,0.3066,0.5493,-0.6104,-5.3711
1461365,0.9093,-0.0323,0.3043,-1.0376,-0.7935,-4.5166
1461385,0.9045,-0.0245,0.311,-1.2207,-1.0986,-4.1504
1461407,0.8972,-0.0098,0.314,-1.4648,-0.5493,-4.2114
1461427,0.8981,-0.0011,0.3224,-1.0986,1.0376,-3.8452
1461447,0.9055,0.0137,0.3245,-0.1831,0.9155,-2.8687
1461468,0.9023,0.0208,0.3308,0.1221,0.7935,-2.1973
1461488,0.8881,0.0111,0.3344,1.6479,1.0376,-0.9155
1461511,0.9059,-0.0057,0.3374,2.5024,3.418,-0.1831
1461531,0.9421,-0.014,0.3257,2.7466,5.0049,-15.625
1461552,0.9526,-0.0193,0.3296,3.9673,4.5166,-0.3052
1461572,0.963,-0.0262,0.3212,4.3945,3.9062,-0.3052
1461592,0.9612,-0.0298,0.321,3.418,1.77,-0.2441
1461612,0.9591,-0.032,0.3193,2.8687,0.3052,-0.061
1461632,0.9485,-0.0425,0.3179,1.9531,-0.6714,0.0
1461652,0.9365,-0.0483,0.3182,1.1597,-1.3428,-0.1831
1461672,0.9247,-0.0468,0.3207,-0.3662,-0.9155,-0.5493
1461692,0.9307,-0.0349,0.3201,-1.1597,0.0,-0.4272
1461713,0.9255,-0.0157,0.3113,-1.1597,-0.3052,-0.1831
1461733,0.9241,-0.0134,0.3083,-1.0986,-0.4272,0.4883
1461753,0.9261,-0.0161,0.3063,-1.5869,0.1831,1.0986
1461814,0.9208,0.0002,0.3167,-0.7324,-2.0752,2.0752
1461834,0.9158,-0.0032,0.323,0.3662,-3.2959,3.0518
1461854,0.913,-0.0061,0.3276,1.1597,-2.6245,3.2349
1461874,0.9147,-0.0059,0.329,1.709,-1.5259,3.0518
1461894,0.9099,-0.0039,0.3258,2.5635,-1.0986,2.8076
1461914,0.9019,-0.0035,0.3191,3.0518,-0.8545,2.4414
1461934,0.9005,-0.0128,0.3203,3.3569,0.0,2.3804
1461954,0.9038,-0.0193,0.321,3.8452,1.0986,1.4038
1461974,0.9078,-0.024,0.3197,3.9673,1.8311,1.2207
1461994,0.9069,-0.0262,0.3148,3.9673,1.2207,1.709
1462014,0.9021,-0.0248,0.3186,3.7842,0.061,2.1973
1462034,0.9001,-0.0277,0.3257,3.7231,0.1831,2.9907
1462054,0.8981,-0.0261,0.3346,3.418,0.4883,3.1128
1462074,0.8976,-0.0176,0.3324,3.1738,1.4648,3.479
1462095,0.9034,-0.0104,0.3325,3.2349,2.5024,3.54
1462115,0.9211,-0.0111,0.3138,3.7842,4.5166,3.9062
1462135,0.9268,-0.0205,0.3086,3.6621,4.7607,4.0894
1462159,0.939,-0.0242,0.3026,1.5259,5.8594,3.9673
1462179,0.9467,-0.0208,0.3025,0.061,5.188,3.1738
1462199,0.9501,-0.0066,0.2908,-1.1597,4.4556,2.3193
1462219,0.9484,-0.0039,0.2881,-2.1973,3.0518,2.1973
1462239,0.9583,-0.0042,0.2845,-3.1738,2.6245,2.5635
1462259,0.9568,-0.0024,0.2853,-4.4556,2.6855,2.6245
1462280,0.9592,0.0029,0.2804,-5.0049,2.5635,2.1362
1462300,0.9517,0.0176,0.2947,-5.3711,1.3428,1.6479
1462320,0.946,0.0304,0.2983,-4.8218,-0.3052,1.3428
1462340,0.9406,0.0355,0.2965,-4.2725,-1.0376,1.5869
1462364,0.9292,0.0327,0.2953,-3.1738,-1.3428,2.3193
1462384,0.9225,0.0339,0.295,-2.5024,-2.0752,2.2583
1462404,0.9189,0.0323,0.2925,-2.3193,-1.2207,2.2583
1462424,0.9196,0.0275,0.2943,-2.0752,-0.1221,2.2583
1462444,0.9254,0.0277,0.2946,-2.3193,-0.2441,1.4648
1462468,0.9377,0.0314,0.2874,-2.1362,-0.1221,0.7324
1462488,0.9457,0.0308,0.2838,-1.8311,-0.5493,0.1831
1462508,0.953,0.0177,0.2849,-0.9155,-1.4648,-0.6104
1462528,0.9476,0.0166,0.2878,-1.0376,-2.1973,-0.9155
1462548,0.9396,0.0215,0.2975,-0.9155,-1.1597,-0.7324
1462568,0.9421,0.0299,0.3075,-0.2441,-3.6621,-0.3662
1462588,0.936,0.0277,0.3022,0.4883,-3.7231,-0.3052
1462608,0.927,0.0215,0.3093,1.3428,-3.418,0.2441
1462628,0.9202,0.0172,0.3101,1.3428,-3.479,0.3662
1462650,0.9208,0.0015,0.3071,0.9766,-3.0518,0.4272
1462670,0.9271,0.0026,0.3125,0.4272,-2.4414,-0.3052
1462690,0.9227,0.0087,0.3142,0.9155,-3.1128,-1.2207
1462710,0.9155,0.0107,0.3109,1.0986,-3.3569,-1.77
1462733,0.921,0.0072,0.3213,1.4038,-2.6245,-1.9531
1462754,0.9399,0.0076,0.3148,1.0986,-1.9531,-1.8311
1462774,0.9338,0.0066,0.319,0.3662,-2.7466,-1.5259
1462795,0.9125,0.0038,0.3235,0.3052,-3.1738,-1.6479
1462815,0.8954,0.0054,0.3243,0.1221,-2.6855,-2.0142
1462839,0.8881,0.0087,0.3262,0.3052,-1.77,-2.0752
1462859,0.8969,0.0139,0.3215,0.2441,-0.3052,-2.0752
1462879,0.9036,0.0104,0.3231,0.4883,0.6104,-1.8921
1462899,0.9136,0.0085,0.3174,0.6714,1.4038,-1.4038
1462919,0.9185,0.0034,0.3134,0.9766,0.7324,-1.0986
1462939,0.9236,-0.0032,0.3131,1.4038,0.5493,-1.0986
1462959,0.937,-0.0021,0.3109,1.4038,0.6714,-1.0986
1462981,0.9399,-0.0026,0.3066,1.77,0.2441,-1.1597
1463001,0.9426,-0.0074,0.309,1.8311,-0.3052,-1.0376
1463021,0.9313,-0.0031,0.2985,1.4038,-0.7324,-0.8545
1463041,0.9291,-0.0002,0.3236,2.4414,-1.6479,-0.1221
1463063,0.9203,-0.0012,0.3207,2.6855,-1.77,1.4648
1463083,0.9224,-0.0016,0.3174,3.2959,-1.4038,3.1738
1463103,0.9347,0.0022,0.3176,2.5635,-0.5493,3.6621
1463123,0.9413,0.0103,0.3131,2.3193,-2.0142,3.7842
1463143,0.942,0.0109,0.3113,2.0142,-2.5024,3.418
1463163,0.9313,0.0103,0.3154,2.5024,-3.479,3.2959
1463183,0.9194,0.0088,0.3209,3.6621,-3.7231,2.9297
1463203,0.9222,0.0007,0.3208,3.2959,-2.4414,2.3193
1463224,0.9225,0.0007,0.3173,1.8921,-2.0752,1.77
1463244,0.9238,0.0026,0.3196,2.1362,-2.3193,2.0142
1463264,0.9305,-0.0034,0.3208,2.2583,-2.8076,1.709
1463284,0.9335,-0.0104,0.3262,1.709,-2.5635,1.3428
1463304,0.9355,-0.0121,0.3181,1.4038,-2.6855,1.1597
1463324,0.9331,-0.0087,0.3193,0.5493,-2.5024,0.5493
1463344,0.9196,-0.0052,0.3239,-0.2441,-2.6245,-0.1221
1463364,0.9115,-0.0031,0.3315,-0.4272,-2.8076,-0.5493
1463384,0.9106,-0.0017,0.3335,-1.3428,-2.6855,-0.6104
1463404,0.9095,0.0052,0.3285,-2.0142,-1.709,-1.2207
1463424,0.9147,0.0084,0.3311,-1.0986,-1.6479,-1.0986
1463444,0.9092,-0.0004,0.3361,-0.3052,-2.2583,-0.6104
1463467,0.9048,-0.0018,0.3403,-0.9155,-2.2583,-0.1221
1463487,0.9044,0.0044,0.3367,-1.2817,-2.1973,-0.2441
1463507,0.9008,0.0096,0.3331,-1.0376,-2.0752,0.1831
1463527,0.8976,0.0088,0.3369,-0.4883,-1.8311,0.5493
1463547,0.9081,0.0077,0.3411,0.0,-1.3428,0.9155
1463567,0.9146,0.0118,0.3372,-0.2441,-1.0376,1.4038
1463589,0.917,0.0117,0.3335,0.3662,-1.0986,1.9531
1463609,0.9181,0.0139,0.3354,0.9155,-1.4038,2.0142
1463629,0.9219,0.0146,0.3423,1.3428,-1.8921,2.1362
1463652,0.9276,0.0153,0.3401,2.1973,-2.1973,3.0518
1463672,0.9218,0.0116,0.3435,2.9297,-2.4414,2.9907
1463692,0.9141,0.0095,0.3491,2.8687,-1.8921,2.5024
1463712,0.9156,0.0066,0.3479,2.4414,-1.3428,2.1362
1463732,0.9183,0.0061,0.3505,2.1973,-0.9766,1.9531
1463752,0.9194,0.0078,0.3457,1.5869,-0.8545,1.5869
1463772,0.9199,0.0099,0.3419,1.709,-1.2817,0.8545
1463792,0.91,0.0078,0.3441,1.5259,-1.2817,0.4883
1463812,0.9058,0.0022,0.3391,0.9155,-1.2207,0.3662
1463832,0.9022,0.0,0.3447,0.4272,-1.0986,0.3662
1463854,0.9091,0.0038,0.3428,0.1831,-0.8545,0.3052
1463874,0.9075,0.0048,0.345,-0.2441,0.8545,-0.4272
1463894,0.9028,0.005,0.3467,0.1831,0.9766,-0.1831
1463914,0.907,0.0089,0.3392,0.061,1.2207,0.0
1463934,0.9098,0.0155,0.3446,0.1221,1.4038,0.0
1463957,0.9148,0.0168,0.3456,1.1597,0.4883,0.2441
1463977,0.915,0.0138,0.3444,2.0142,0.1221,0.6104
1463997,0.9121,0.0084,0.3478,2.1362,0.061,0.8545
1464018,0.9194,0.0144,0.3466,1.8311,-0.1221,1.0376
1464038,0.9125,0.0188,0.3445,2.2583,-1.2207,1.1597
1464058,0.906,0.0126,0.3494,2.0752,-1.0376,1.0986
1464078,0.9103,0.0059,0.3418,1.9531,-0.5493,1.5259
1464098,0.9125,0.0018,0.3416,1.77,0.061,1.5869
1464138,0.9105,0.0098,0.3401,1.0986,0.0,1.2207
1464162,0.9147,0.0156,0.3408,0.7935,0.1221,0.4883
1464182,0.9196,0.0125,0.3427,1.4038,0.4272,0.7324
1464202,0.9286,0.0077,0.3364,1.1597,0.3052,0.4272
1464222,0.9187,0.0114,0.3373,0.4883,-0.1831,0.1221
1464243,0.9146,0.0085,0.3378,0.4883,-0.6104,0.1221
1464263,0.9185,0.0023,0.3394,-0.061,-0.2441,0.1221
1464283,0.9203,0.0088,0.3387,-0.3052,-0.061,0.2441
1464303,0.92,0.0145,0.3395,0.1221,0.061,0.1831
1464323,0.9149,0.0116,0.3425,0.7935,0.3662,-0.3052
1464343,0.9148,0.0114,0.3403,0.4272,0.4883,-0.3662
1464363,0.9165,0.0159,0.333,0.6104,0.061,-0.3052
1464383,0.9163,0.0143,0.34,0.9766,-0.3662,-0.1831
1464403,0.9148,0.0114,0.3375,1.0986,-0.7324,0.3052
1464423,0.9125,0.0078,0.3424,1.1597,-0.7935,0.7324
1464444,0.9135,0.006,0.3434,1.2207,-0.5493,0.9766
1464464,0.9198,0.0038,0.3445,0.8545,-0.6104,0.7935
1464484,0.9202,0.0052,0.339,0.4883,-0.7935,0.4883
1464504,0.9121,0.0076,0.3126,1.1597,-0.7324,0.3662
1464525,0.913,0.0105,0.3409,1.1597,-0.6714,0.0
1464545,0.9126,0.0116,0.3348,0.9766,-0.4883,0.1831
1464565,0.9144,0.0067,0.3336,0.6104,-0.4883,0.6714
1464585,0.9138,0.0035,0.3379,0.4272,-0.4883,0.9766
1464605,0.918,0.0011,0.3405,0.3052,-0.4272,1.0986
1464625,0.9203,0.0055,0.3313,0.2441,-0.5493,1.0986
1464645,0.9152,0.0105,0.3385,0.061,-0.7935,0.7324
1464665,0.9078,0.0121,0.3361,0.1831,-0.9766,0.3662
1464685,0.9095,0.0088,0.3392,0.1221,-0.6714,0.1831
1464705,0.9194,0.0071,0.3364,-0.2441,0.0,0.1831
1464746,0.9269,0.0067,0.3354,-0.5493,-0.1221,0.3052
1464768,0.921,0.0062,0.3381,-0.4883,-0.7324,0.4272
1464788,0.9189,0.0068,0.337,-0.3052,-1.2207,0.7324
1464808,0.9114,0.012,0.3369,-0.4883,-1.0986,0.8545
1464828,0.9133,0.0155,0.3369,-0.3662,-0.8545,0.7935
1464848,0.917,0.0177,0.339,-0.1831,-0.7935,0.8545
1464868,0.9224,0.0156,0.3361,0.1221,-0.6714,0.7935
1464891,0.92,0.0187,0.3394,0.6104,-0.9155,0.6104
1464911,0.9177,0.0144,0.3414,1.0376,-0.9155,0.6714
1464931,0.9183,0.0178,0.3422,1.1597,-0.9766,0.4883
1464951,0.9139,0.0178,0.3451,1.5259,-1.3428,0.8545
1464971,0.9133,0.0134,0.3413,1.5259,-1.1597,1.2817
1464991,0.9104,0.0088,0.3472,1.709,-0.8545,1.1597
1465011,0.9109,0.0111,0.3452,1.709,-0.5493,1.4038
1465031,0.9089,0.014,0.3494,1.77,-0.6714,1.4038
1465051,0.91,0.015,0.3419,1.8311,-0.8545,1.4038
1465071,0.9088,0.0134,0.3434,1.9531,-0.8545,1.2817
1465091,0.9088,0.0125,0.3466,1.77,-0.9766,1.0986
1465111,0.9152,0.0125,0.3472,1.709,-0.4883,1.0986
1465131,0.9198,0.0138,0.3444,1.4648,-0.6104,0.9155
1465151,0.9125,0.016,0.3458,1.3428,-0.7324,0.9155
1465171,0.9103,0.0098,0.3433,1.0376,-0.5493,0.6714
1465191,0.9115,0.0063,0.3463,0.8545,-0.3052,0.5493
1465211,0.9156,0.0071,0.3419,1.0376,0.061,0.5493
1465231,0.9148,0.0066,0.3381,0.3662,-0.2441,0.1831
1465251,0.9174,0.0068,0.3392,0.1831,0.3052,0.1221
1465271,0.9226,0.0142,0.3413,0.1221,-0.1221,0.4272
1465291,0.918,0.0173,0.3441,0.2441,-0.5493,0.6714
1465313,0.9141,0.0171,0.3406,0.3052,-0.7324,1.0376
1465333,0.9109,0.0151,0.3408,0.4272,-1.0376,1.3428
1465353,0.9113,0.0143,0.3442,0.8545,-0.3662,1.3428
1465373,0.9152,0.0132,0.3396,0.7324,-0.4272,1.2207
1465393,0.9209,0.0134,0.3419,0.7935,-0.6104,1.2817
1465414,0.9178,0.0155,0.3407,0.9155,-0.9766,1.2817
1465434,0.9117,0.0192,0.3405,1.2817,-1.0986,1.2817
1465454,0.9039,0.0211,0.3408,1.4648,-1.3428,1.2817
1465474,0.8962,0.0155,0.3425,1.709,-1.2207,1.6479
1465494,0.896,0.0134,0.3409,1.2207,-0.061,1.4038
1465514,0.9023,0.0072,0.3459,1.3428,0.1831,1.1597
1465534,0.9108,0.0083,0.3433,1.0986,0.6104,0.9155
1465554,0.9196,0.0134,0.3368,0.7935,0.7324,0.8545
1465577,0.9257,0.0071,0.342,0.6714,-0.4883,0.9766
1465597,0.9283,0.0089,0.3456,0.3052,-0.7324,0.8545
1465618,0.9265,0.0162,0.348,0.3052,-1.0376,0.6104
1465638,0.9202,0.0189,0.35,0.5493,-0.9155,0.5493
1465662,0.9135,0.0204,0.3488,0.3052,-0.061,0.3052
1465682,0.9113,0.0216,0.3463,0.2441,0.0,0.4883
1465702,0.9069,0.0231,0.3451,0.4272,0.2441,0.5493
1465722,0.9034,0.0266,0.3436,0.6714,0.0,0.7935
1465742,0.9015,0.0245,0.345,0.7935,-0.2441,0.9155
1465762,0.8973,0.0212,0.3438,0.8545,-0.061,1.4648
1465782,0.8987,0.0214,0.3427,0.8545,-0.1831,1.5869
1465803,0.8993,0.02,0.3448,0.7324,-0.1831,1.8921
1465826,0.8994,0.0149,0.3436,0.061,-0.3662,1.5259
1465846,0.9025,0.01,0.3494,0.4272,0.1831,1.1597
1465866,0.9095,0.0103,0.3474,-0.061,1.0376,0.3052
1465886,0.9242,0.0117,0.3457,-0.4272,1.8921,0.1221
1465909,0.9346,0.0073,0.3442,-1.5869,2.9907,-0.1831
1465929,0.9429,0.0165,0.3435,-2.1362,2.0142,-0.3052
1465949,0.9429,0.0214,0.3409,-1.8311,0.8545,-0.1831
1465969,0.9415,0.0219,0.3389,-1.5869,0.0,-0.061
1465993,0.9348,0.0098,0.3313,-1.8311,-0.1221,-0.061
1466013,0.9276,0.0068,0.3293,-2.1362,0.0,-0.6104
1466033,0.9194,0.0083,0.3258,-2.3193,-0.3052,-1.2207
1466057,0.9091,0.0189,0.3247,-2.2583,-0.4883,-1.3428
1466077,0.9028,0.0211,0.3276,-2.1973,-0.7324,-0.5493
1466098,0.8961,0.0236,0.3337,-2.0752,-0.7324,-0.1831
1466118,0.8906,0.0276,0.3354,-2.0752,-0.2441,0.3052
1466138,0.9008,0.0291,0.3293,-1.5259,1.5259,-0.3052
1466158,0.9116,0.0323,0.3284,-1.0986,2.8687,-0.4272
1466179,0.9171,0.0341,0.3242,-0.6714,3.479,-0.4272
1466199,0.9231,0.0334,0.3275,0.1831,3.479,0.1831
1466219,0.929,0.0399,0.3213,1.2817,2.6855,0.6104
1466239,0.9331,0.042,0.3223,2.0142,1.4648,1.0376
1466259,0.9337,0.0297,0.3235,2.5635,-0.6714,1.9531
1466279,0.9435,0.0173,0.3263,2.0752,-0.9155,2.0752
1466299,0.9386,0.0209,0.3252,2.4414,-1.5259,1.77
1466319,0.9253,0.0243,0.3224,2.5635,-1.709,1.1597
1466339,0.9164,0.0225,0.3333,2.4414,-1.5869,0.7324
1466359,0.9149,0.0176,0.3323,2.0142,-1.2207,0.7324
1466379,0.9087,0.0146,0.3317,0.3662,-0.7935,1.0986
1466399,0.899,0.0171,0.3319,0.061,-0.6714,0.9155
1466419,0.8929,0.0208,0.3281,-0.6104,-0.1221,0.2441
1466439,0.9041,0.0292,0.3311,-0.6714,0.8545,-0.7324
1466459,0.9209,0.0356,0.3292,-0.3662,1.1597,-0.6714
1466479,0.9365,0.0339,0.3276,-0.3662,0.3052,-0.4883
1466499,0.936,0.0288,0.3287,-0.5493,-0.4883,-0.3052
1466519,0.9313,0.0264,0.3292,-0.4272,-0.7935,-0.4272
1466539,0.9305,0.0286,0.3309,0.061,-1.2207,-0.8545
1466559,0.923,0.0336,0.3334,0.7935,-1.6479,-0.4883
1466579,0.9083,0.0293,0.3357,1.5869,-1.3428,0.061
1466599,0.9061,0.0281,0.3319,1.6479,-0.9155,0.061
1466619,0.9143,0.0255,0.3303,1.709,-0.2441,0.4883
1466639,0.9169,0.0205,0.3292,2.0142,-0.4883,0.7935
1466659,0.9202,0.0143,0.3258,2.0752,-0.4883,0.8545
1466679,0.9271,0.0094,0.3251,1.5869,-0.1831,0.3662
1466699,0.9304,0.0112,0.3223,1.4648,-0.3052,-0.1831
1466719,0.9221,0.0153,0.3252,1.2817,-0.8545,-0.5493
1466739,0.9182,0.0168,0.3253,1.0376,-1.1597,-0.4883
1466759,0.9169,0.0155,0.3282,0.7324,-1.3428,-0.1831
1466779,0.9108,0.0111,0.3329,0.5493,-1.2817,0.1221
1466800,0.9115,0.0126,0.3365,0.2441,-1.0986,0.2441
1466820,0.9103,0.0194,0.338,0.3052,-1.0376,0.3052
1466840,0.9075,0.0258,0.3379,0.6104,-0.9766,0.3662
1466860,0.9211,0.024,0.338,0.6714,-0.6714,0.8545
1466880,0.9293,0.0216,0.339,0.8545,-0.6104,1.0986
1466900,0.9274,0.0243,0.3347,1.3428,-1.0376,1.2207
1466920,0.9226,0.0173,0.3375,1.6479,-1.0986,1.2207
1466942,0.9221,0.0188,0.3345,1.5869,-1.0376,1.0376
1466962,0.9163,0.0258,0.334,1.9531,-1.1597,1.2817
1466982,0.9193,0.022,0.3373,2.0752,-0.9766,1.709
1467002,0.9252,0.0164,0.3367,1.9531,-0.7324,2.0142
1467022,0.9227,0.0155,0.3318,1.8311,-0.9155,2.0752
1467042,0.9094,0.0137,0.3317,1.77,-1.4038,1.8921
1467062,0.9048,0.015,0.3318,1.8921,-1.4648,1.5869
1467082,0.9028,0.0187,0.3328,1.6479,-0.8545,1.1597
1467105,0.9072,0.022,0.3337,1.3428,-0.4883,1.0986
1467125,0.9071,0.0231,0.335,1.2207,-0.061,1.2207
1467145,0.9125,0.0245,0.3303,1.0986,0.1221,1.1597
1467165,0.9116,0.026,0.3308,1.1597,0.061,0.9766
1467185,0.9033,0.0239,0.3295,1.0986,0.061,0.6104
1467205,0.8956,0.0209,0.3287,1.2207,0.6104,0.3662
1467227,0.8932,0.0271,0.3346,1.2817,0.4272,0.3052
1467247,0.9059,0.0306,0.3335,1.5259,0.9155,1.1597
1467267,0.9178,0.0281,0.335,1.4038,1.2817,1.5869
1467287,0.9264,0.021,0.3354,1.2207,1.5259,2.1362
1467307,0.9408,0.0194,0.3364,1.0986,1.5259,2.0752
1467327,0.9429,0.024,0.335,1.3428,0.7935,1.709
1467348,0.9371,0.0287,0.3369,1.4648,-0.5493,1.5259
1467368,0.9344,0.0281,0.3378,1.6479,-0.8545,1.5259
1467388,0.9333,0.0251,0.3364,1.2817,-0.7324,1.4648
1467410,0.9313,0.0267,0.3392,1.2207,-0.4883,1.0376
1467430,0.9224,0.0277,0.3318,1.0376,-0.5493,1.2817
1467450,0.9149,0.0254,0.334,1.1597,-1.1597,1.3428
1467470,0.9114,0.0261,0.3304,1.4038,-1.2817,1.2207
1467490,0.9059,0.0267,0.3282,1.709,-1.4038,1.0986
1467513,0.905,0.0269,0.3279,1.4648,-1.0376,1.1597
1467533,0.9077,0.0204,0.329,1.1597,-0.5493,0.9155
1467555,0.9171,0.0195,0.3295,0.6714,0.1831,0.6104
1467575,0.9214,0.0259,0.3298,0.5493,-0.4272,0.1831
1467595,0.9174,0.0225,0.3297,0.6714,-0.7324,0.0
1467616,0.9117,0.0194,0.333,0.3662,-0.6714,-0.061
1467636,0.9067,0.0245,0.337,-0.1221,-0.2441,0.0
1467659,0.911,0.0265,0.3387,-0.1221,0.1831,-0.061
1467679,0.9188,0.0286,0.3339,-0.3662,0.7324,-0.4272
1467700,0.9298,0.0325,0.3331,-0.1221,0.4272,-0.2441
1467720,0.9255,0.0315,0.3329,-0.1831,-0.6714,0.0
1467740,0.9218,0.0289,0.3353,0.1831,-0.9155,0.4883
1467760,0.9139,0.0302,0.3379,-0.1221,-1.2207,1.1597
1467780,0.9113,0.0323,0.3364,0.1831,-1.2207,1.2207
1467800,0.91,0.0352,0.3374,0.7935,-0.9155,1.2817
1467820,0.9144,0.0355,0.3336,1.0376,-0.5493,1.2207
1467840,0.9163,0.0298,0.3324,1.2817,-0.1221,1.1597
1467860,0.9265,0.0269,0.3318,1.2817,0.1831,0.9766
1467880,0.9316,0.0298,0.3278,1.4648,0.3662,0.6104
1467900,0.9332,0.0376,0.3303,1.8311,-0.6714,0.6714
1467920,0.9352,0.033,0.3298,1.6479,-1.2817,0.6714
1467940,0.9331,0.0287,0.3376,1.4648,-1.5259,0.6714
1467960,0.9172,0.0392,0.3301,1.0986,-1.9531,-0.1831
1467980,0.9136,0.041,0.3402,1.5259,-2.1973,-0.7935
1468000,0.8997,0.0311,0.3361,2.0142,-1.9531,-1.0376
1468020,0.9027,0.0139,0.3287,1.3428,-0.7324,-1.5869
1468040,0.9102,0.0104,0.3264,0.7324,0.061,-1.77
1468060,0.9202,0.012,0.3232,-0.061,0.2441,-2.0752
1468082,0.9249,0.0146,0.3236,-0.6714,-0.1221,-2.2583
1468102,0.9247,0.0157,0.3262,-0.7324,-0.8545,-2.1973
1468122,0.9231,0.0215,0.3315,-0.9766,-1.4648,-1.709
1468142,0.9185,0.025,0.3373,-0.9766,-1.5869,-1.3428
1468162,0.9119,0.0312,0.3379,-0.8545,-1.8921,-1.0376
1468186,0.9025,0.0287,0.3376,-0.1831,-1.9531,-0.2441
1468207,0.9073,0.0312,0.3381,0.6104,-0.7935,0.0
1468227,0.9108,0.0277,0.3364,1.3428,-0.9155,0.3662
1468247,0.9108,0.0265,0.3385,1.8311,-1.0376,0.6104
1468267,0.921,0.0201,0.3391,2.0752,-1.0986,1.0376
1468291,0.9203,0.0151,0.3416,2.1973,-1.4648,1.3428
1468311,0.9091,0.0084,0.3441,1.9531,-1.2817,0.9766
1468331,0.9059,0.0134,0.347,1.9531,-0.8545,0.6104
1468351,0.912,0.0183,0.3411,2.0142,-0.6714,0.5493
1468371,0.912,0.0184,0.3414,1.4648,-0.4272,0.6714
1468391,0.9128,0.0156,0.3419,1.1597,-0.9766,0.6714
1468411,0.9109,0.014,0.3412,1.0376,-1.0376,0.8545
1468431,0.9094,0.0138,0.3434,0.7324,-1.0376,0.4883
1468451,0.9075,0.0177,0.3427,0.7935,-0.7324,0.1831
1468471,0.9022,0.0222,0.3433,0.5493,-0.4883,-0.1221
1468493,0.8994,0.0195,0.3387,1.2207,-0.1221,-0.1831
1468513,0.9054,0.0187,0.3394,1.2207,0.4272,-0.3052
1468533,0.9083,0.019,0.3386,1.0376,0.9766,-0.3052
1468553,0.9182,0.0154,0.34,0.1831,1.2207,-0.061
1468573,0.9219,0.0153,0.3413,-0.061,0.7935,-0.4883
1468593,0.9254,0.0212,0.3408,0.1221,0.6104,-0.4272
1468613,0.9282,0.0275,0.3396,0.4883,0.3662,-0.3662
1468633,0.9312,0.0273,0.3398,0.7935,-0.3662,0.0
1468653,0.9359,0.0232,0.3395,0.6104,-0.061,0.4272
1468673,0.9386,0.0219,0.3417,0.5493,-0.4272,0.1831
1468697,0.9333,0.0225,0.3445,0.5493,-0.9155,0.0
1468717,0.9233,0.0256,0.3376,0.9155,-1.2207,-0.061
1468739,0.9136,0.0277,0.3446,1.1597,-1.4648,0.1221
1468759,0.9047,0.0276,0.3406,1.5869,-1.3428,0.3052
1468779,0.8994,0.0194,0.3402,1.4648,-0.9155,0.8545
1468800,0.8995,0.0116,0.3352,1.4648,-0.6104,1.0376
1468820,0.9043,0.0134,0.3331,1.3428,-0.3662,1.0376
1468840,0.9075,0.026,0.3317,1.3428,-0.7324,0.9155
1468860,0.9102,0.0247,0.3318,1.8921,-1.1597,1.2817
1468880,0.915,0.0104,0.3365,1.5259,-0.9766,1.4038
1468900,0.9344,0.0093,0.3425,1.3428,-1.0986,1.0376
1468920,0.9302,0.0153,0.3369,0.8545,-1.0376,0.6104
1468940,0.9158,0.0192,0.3463,0.7324,-1.2817,-0.1221
1468960,0.9089,0.0203,0.3447,0.7935,-0.8545,-0.2441
1468980,0.9121,0.0164,0.3413,0.8545,-0.3052,0.061
1469000,0.9121,0.0161,0.3425,0.6104,-0.1221,0.1831
1469020,0.9136,0.0194,0.3411,0.9766,0.061,0.4883
1469040,0.9174,0.0231,0.3396,1.0376,-0.3052,0.4272
1469060,0.9174,0.0228,0.3419,0.9155,-0.061,0.1831
1469081,0.9203,0.0203,0.3422,1.2817,-0.3052,0.3052
1469101,0.9165,0.0275,0.3348,1.3428,-0.8545,0.4272
1469121,0.9131,0.0269,0.342,1.5869,-1.2817,0.7324
1469141,0.9166,0.0211,0.3457,2.0142,-1.2207,1.2207
1469161,0.9191,0.0128,0.345,2.0752,-0.9766,1.8311
1469181,0.9177,0.0126,0.347,2.1973,-0.9155,1.8311
1469205,0.9178,0.0176,0.344,1.77,-0.1831,1.4648
1469225,0.9189,0.0179,0.3419,1.2817,0.1831,0.7935
1469245,0.9199,0.0168,0.3425,1.1597,-0.1831,0.3662
1469265,0.9182,0.0162,0.3363,1.1597,-0.4272,0.5493
1469285,0.9149,0.0138,0.3369,0.9155,-0.4883,0.1831
1469305,0.9165,0.015,0.3356,0.9766,-0.4272,0.1831
1469325,0.9143,0.02,0.3367,0.9766,-0.4883,-0.2441
1469345,0.9125,0.0193,0.3362,0.9766,-0.8545,-0.1831
1469365,0.9113,0.0168,0.3395,0.8545,-0.6104,-0.2441
1469385,0.906,0.0161,0.3433,0.9766,-0.8545,-0.1221
1469405,0.9014,0.0173,0.3444,1.1597,-1.0376,-0.1221
1469426,0.9032,0.0178,0.3427,1.5259,-1.1597,0.3662
1469446,0.9072,0.0164,0.3473,1.4038,-0.9766,0.7324
1469468,0.9138,0.0209,0.3413,1.1597,-0.4272,0.4883
1469488,0.9111,0.0225,0.3467,1.5259,-0.7324,0.4883
1469508,0.9111,0.0162,0.3447,1.4038,-0.7324,0.6714
1469528,0.9152,0.0153,0.345,1.0986,-0.1831,0.8545
1469548,0.9125,0.0179,0.3492,1.2207,-0.4272,0.9766
1469568,0.9125,0.0184,0.3483,1.0376,-0.5493,1.0376
1469588,0.9064,0.0208,0.3505,1.4038,-0.6714,0.6714
1469608,0.9071,0.0183,0.3477,1.2207,-0.6714,1.1597
1469630,0.9,0.0146,0.3483,1.1597,-0.4272,1.4648
1469651,0.9032,0.0159,0.3741,0.8545,0.3662,1.77
1469671,0.9065,0.0234,0.3448,0.8545,0.6104,1.5259
1469691,0.9081,0.0255,0.3428,1.2207,0.4272,1.2207
1469712,0.9128,0.0217,0.3464,1.4648,0.7935,1.2207
1469732,0.9213,0.0206,0.3458,1.5869,0.7324,1.2207
1469752,0.9275,0.0195,0.3448,1.5259,0.4272,1.0376
1469773,0.9274,0.0156,0.3424,1.4648,0.2441,0.7324
1469793,0.9261,0.0151,0.343,1.1597,-0.1831,0.7935
1469813,0.9236,0.0188,0.3434,1.4648,-0.4883,0.3662
1469833,0.9221,0.0165,0.3409,1.4038,-0.6104,0.061
1469853,0.9199,0.0104,0.3381,0.6104,-0.6714,0.1831
1469875,0.9153,0.0098,0.3376,0.2441,-0.7935,0.061
1469895,0.9106,0.0155,0.3397,-0.2441,-0.7324,-0.4883
1469915,0.9111,0.0208,0.3381,-0.061,-0.4883,-0.9155
1469935,0.9139,0.022,0.3363,-0.2441,-0.5493,-0.7935
1469955,0.9153,0.0182,0.3375,0.0,-0.6714,-0.6104
1469975,0.9148,0.0148,0.3365,-0.1831,-0.3052,-0.6104
1469995,0.9197,0.0178,0.3361,-0.4272,-0.1831,-0.6714
1470015,0.9178,0.0208,0.3373,-0.2441,-0.7324,-0.6104
1470035,0.9099,0.0208,0.3386,0.1831,-0.9155,-0.1831
1470055,0.9075,0.0203,0.3383,0.4883,-0.7324,0.3052
1470076,0.9104,0.0201,0.3405,0.5493,-0.6714,0.4272
1470096,0.9149,0.0245,0.3357,1.1597,-0.6104,0.4883
1470116,0.9121,0.024,0.3378,0.9766,-0.7935,0.7935
1470136,0.9175,0.0131,0.3394,1.1597,-0.4272,0.8545
1470156,0.9183,0.0137,0.3378,1.2207,-0.3662,0.6714
1470176,0.9209,0.0198,0.3401,1.2207,-1.0376,0.9155
1470196,0.9113,0.0176,0.3452,1.4038,-1.1597,1.0376
1470216,0.9104,0.0175,0.3441,1.0376,-0.9155,1.0376
1470236,0.9102,0.0166,0.3466,1.0376,-0.7935,1.2207
1470259,0.9105,0.0192,0.3455,1.0376,-0.7935,1.1597
1470279,0.9076,0.0175,0.3452,0.9155,-0.6104,0.9766
1470299,0.9136,0.0183,0.3436,1.1597,-0.3662,0.7324
1470319,0.9158,0.0205,0.3451,1.2207,-0.4272,0.6714
1470339,0.9133,0.0181,0.3436,1.0376,-0.7324,0.5493
1470359,0.9084,0.0188,0.3439,0.8545,-0.7935,0.6104
1470379,0.9078,0.0203,0.342,0.9155,-0.3052,0.4883
1470399,0.9114,0.0201,0.3413,0.7324,0.3052,0.5493
1470420,0.9127,0.0215,0.3375,1.0376,0.1831,0.3662
1470440,0.9102,0.0229,0.3428,0.9766,-0.1221,0.3052
1470462,0.9211,0.0259,0.3409,0.9155,0.3662,0.2441
1470482,0.9231,0.0234,0.3423,0.9766,0.0,0.3052
1470502,0.9209,0.0205,0.3428,0.8545,-0.061,0.3662
1470522,0.9197,0.016,0.3423,0.6714,-0.3662,0.2441
1470542,0.9224,0.0171,0.3413,0.9155,-0.061,0.1221
1470563,0.9233,0.019,0.342,0.8545,-0.6104,0.061
1470583,0.9222,0.0175,0.3419,0.9155,-0.6104,0.3052
1470603,0.9164,0.016,0.3416,0.9766,-0.7324,0.2441
1470623,0.9186,0.0154,0.3414,0.4883,-0.4272,0.4272
1470643,0.9216,0.0182,0.3403,0.7324,-0.7935,0.3052
1470663,0.9191,0.016,0.3394,0.6714,-1.0986,0.4883
1470683,0.9121,0.0159,0.3401,0.9155,-1.1597,0.4272
1470703,0.9069,0.0186,0.3411,0.8545,-1.1597,0.4883
1470723,0.9083,0.0206,0.3408,0.9766,-1.0376,0.6104
1470743,0.9098,0.0204,0.3383,0.9766,-1.1597,0.8545
1470763,0.9083,0.0161,0.343,0.9155,-1.3428,0.9155
1470783,0.9097,0.0197,0.3406,0.9766,-0.8545,0.7935
1470803,0.9109,0.0208,0.3412,1.2817,-0.9155,0.7935
1470824,0.9153,0.0104,0.3405,1.1597,-0.9766,0.7935
1470844,0.9187,0.0103,0.3403,0.9155,-0.8545,0.4883
1470864,0.9156,0.0186,0.3472,0.6714,-0.9155,0.7935
1470884,0.9146,0.0182,0.3475,0.7324,-0.9766,0.7324
1470904,0.9113,0.0197,0.3489,0.5493,-0.7324,0.9766
1470926,0.9106,0.019,0.3495,0.5493,-0.9155,1.2817
1470947,0.911,0.0226,0.3492,0.4272,-0.7935,1.0376
1470968,0.9087,0.0254,0.3481,0.8545,-0.9155,1.0986
1470988,0.9108,0.0253,0.3467,0.9155,-1.0376,0.8545
1471008,0.9141,0.0232,0.3474,1.2207,-0.9155,0.7935
1471028,0.9153,0.0245,0.3474,1.0986,-0.9155,0.8545
1471048,0.9161,0.0239,0.3468,1.0376,-0.9155,1.0376
1471068,0.9136,0.0251,0.3459,0.9766,-1.1597,1.1597
1471088,0.9077,0.0226,0.3479,1.4038,-1.0986,1.2207
1471108,0.9132,0.0189,0.3453,1.2207,-0.6104,0.8545
1471130,0.9139,0.0206,0.345,1.0986,-0.5493,0.9766
1471150,0.9183,0.0226,0.3438,0.8545,-0.7935,1.0376
1471170,0.9185,0.0214,0.3473,0.7935,-0.9155,0.8545
1471192,0.9147,0.0236,0.3445,0.7324,-1.0986,0.6714
1471212,0.9086,0.0216,0.3467,0.6714,-1.1597,0.5493
1471232,0.8998,0.0228,0.3473,0.4883,-0.9155,0.3662
1471254,0.8958,0.0206,0.3474,0.4883,-0.9155,0.3052
1471274,0.8961,0.0201,0.3478,0.4272,-0.4883,0.3052
1471294,0.8994,0.0237,0.3474,0.3052,-0.061,0.7324
1471316,0.9003,0.0258,0.3514,0.6714,-0.3052,0.9155
1471336,0.9071,0.0277,0.3523,0.9155,0.5493,0.8545
1471356,0.9143,0.031,0.3534,1.3428,0.2441,0.7935
1471376,0.9208,0.0308,0.354,1.4038,0.0,1.0376
1471398,0.9255,0.0273,0.3528,1.5259,0.061,0.9766
1471418,0.929,0.0272,0.3497,1.5869,0.0,0.8545
1471438,0.9313,0.0262,0.3491,1.709,-0.3052,0.9155
1471458,0.9288,0.0242,0.3488,1.8311,-0.6714,0.9766
1471478,0.9253,0.0212,0.3495,1.5259,-1.0376,1.0376
1471500,0.9159,0.0198,0.3459,1.5259,-1.0376,0.8545
1471520,0.9081,0.0194,0.3446,1.2817,-0.9766,0.4883
1471540,0.9025,0.0184,0.3458,1.0986,-0.8545,0.4272
1471560,0.9028,0.0188,0.343,1.0986,-0.6104,0.3662
1471580,0.9033,0.0153,0.3423,0.9155,-0.7935,0.061
1471600,0.9039,0.0205,0.3376,0.5493,-0.4883,-0.1831
1471620,0.9053,0.0195,0.3407,0.5493,-0.6104,-0.3052
1471640,0.906,0.0156,0.3436,0.2441,-0.2441,-0.1831
1471660,0.9187,0.0245,0.3479,0.3662,-0.7324,0.0
1471680,0.9175,0.0264,0.3501,0.8545,-1.0376,0.061
1471700,0.9104,0.0206,0.3529,0.7935,-0.3052,0.1831
1471720,0.9163,0.0212,0.3514,0.9155,0.1831,0.061
1471740,0.922,0.0219,0.3506,0.6714,-0.061,0.2441
1471760,0.9191,0.0259,0.3467,1.4038,-0.6104,0.4272
1471780,0.9182,0.026,0.3451,1.5259,-0.7935,0.6104
1471800,0.9149,0.0242,0.343,1.4648,-0.8545,0.7935
1471820,0.9143,0.0242,0.3445,1.2207,-0.8545,0.5493
1471840,0.9115,0.0234,0.3444,1.4648,-0.7935,0.6104
1471860,0.9094,0.0249,0.3457,1.4038,-1.0986,0.5493
1471880,0.9061,0.0239,0.3477,1.3428,-1.1597,0.5493
1471900,0.9081,0.0164,0.3484,1.2817,-0.8545,0.6714
1471920,0.9114,0.0183,0.3467,1.0376,-0.7935,0.4272
1471940,0.9109,0.0212,0.3483,0.9155,-0.7935,0.3662
1471960,0.9115,0.026,0.3455,0.8545,-0.9766,0.4272
1471980,0.9097,0.0242,0.3467,1.0376,-0.9155,0.4272
1472000,0.9136,0.0237,0.3481,0.8545,-0.6104,0.3052
1472020,0.9177,0.0255,0.3495,0.8545,-0.7935,0.0
1472040,0.9156,0.0226,0.348,1.0376,-1.2207,-0.061
1472062,0.9133,0.0192,0.349,0.8545,-1.0986,-0.061
1472082,0.9127,0.02,0.3506,0.6104,-1.2207,-0.1831
1472102,0.9061,0.0225,0.3502,0.8545,-1.2817,-0.2441
1472122,0.9023,0.0233,0.3525,0.9766,-1.3428,-0.2441
1472142,0.9043,0.0222,0.3502,0.7935,-1.2817,0.061
1472162,0.905,0.0243,0.3499,0.9766,-0.9155,0.0
1472182,0.9065,0.0234,0.3531,1.4648,-1.1597,-0.061
1472202,0.9131,0.0222,0.3523,1.77,-0.9766,0.1221
1472222,0.9131,0.0194,0.3534,1.8311,-1.2207,0.061
1472242,0.9133,0.014,0.3529,1.4648,-1.0376,0.2441
1472266,0.915,0.0162,0.3568,1.2817,-0.8545,0.1221
1472286,0.9171,0.0138,0.3561,1.0376,-1.0986,0.061
1472306,0.9153,0.0206,0.3519,0.9766,-0.7324,0.3052
1472326,0.9097,0.0166,0.3496,0.6714,-1.0986,0.4883
1472349,0.907,0.0142,0.3514,0.6104,-0.9155,0.6714
1472369,0.9109,0.0143,0.3538,0.3662,-0.6714,0.3662
1472389,0.9114,0.0176,0.3545,0.3052,-1.0376,0.3662
1472409,0.9036,0.0171,0.3574,0.0,-1.2817,0.4883
1472432,0.8979,0.0189,0.3607,0.3052,-0.9766,0.6714
1472454,0.9021,0.0179,0.3604,0.3052,-0.6714,0.7324
1472474,0.9025,0.0189,0.3595,0.7324,-0.5493,0.7324
1472494,0.9054,0.019,0.3601,0.7935,-0.3052,0.9766
1472514,0.9127,0.0175,0.3588,0.8545,0.1831,1.0986
1472535,0.9166,0.0176,0.3582,0.7935,-0.1831,0.7935
1472555,0.9218,0.0186,0.3556,0.9766,-0.1831,0.8545
1472575,0.922,0.0198,0.356,1.0376,-0.6714,0.8545
1472598,0.9073,0.0208,0.358,0.9155,-0.9155,1.0376
1472618,0.9048,0.0177,0.3531,0.9155,-0.3662,0.7935
1472640,0.9108,0.0157,0.3511,0.7935,0.1831,0.6104
1472661,0.9073,0.0199,0.3495,0.7324,-0.6104,0.6104
1472681,0.9052,0.0171,0.3507,0.6104,-0.7935,0.7324
1472701,0.9034,0.0167,0.3507,0.6104,-0.7935,0.6104
1472721,0.9104,0.019,0.3551,0.6104,-0.4883,0.8545
1472742,0.9121,0.0204,0.3568,0.4883,-0.3662,0.7935
1472762,0.908,0.0208,0.3578,0.3052,-0.4272,0.9155
1472782,0.9138,0.0186,0.3571,0.3052,-0.061,0.6104
1472804,0.9172,0.022,0.3564,0.2441,-0.1221,0.4272
1472824,0.9153,0.0265,0.353,0.5493,-0.7324,0.7324
1472844,0.9108,0.0259,0.3556,0.4272,-0.9766,0.9155
1472864,0.9103,0.0265,0.3536,0.6104,-0.9155,0.9766
1472884,0.9087,0.0247,0.3533,0.6714,-0.8545,0.7935
1472904,0.9064,0.0231,0.3521,0.6714,-1.0376,0.7324
1472924,0.9053,0.0209,0.3534,0.5493,-0.8545,0.8545
1472944,0.9034,0.0222,0.3564,0.6104,-0.5493,0.8545
1472964,0.9055,0.0247,0.3583,0.5493,-0.4272,0.8545
1472987,0.9073,0.0255,0.3583,0.9155,-0.5493,0.9155
1473007,0.907,0.0266,0.3564,0.6714,-0.6104,1.1597
1473027,0.9081,0.0273,0.3555,1.0376,-0.8545,1.0986
1473047,0.9093,0.025,0.3566,1.1597,-0.5493,0.9766
1473067,0.9087,0.0289,0.3521,0.9766,-0.4883,0.7935
1473087,0.9053,0.0236,0.3556,0.7935,-0.5493,0.6714
1473107,0.9111,0.0187,0.3529,0.6714,-0.3052,0.5493
1473127,0.9147,0.0251,0.3539,0.3662,-0.6104,0.4883
1473147,0.9139,0.0237,0.3583,0.6104,-1.0376,0.6104
1473167,0.9059,0.0244,0.3608,0.6104,-0.7935,0.7935
1473188,0.9037,0.0281,0.36,0.6104,-0.7935,0.7324
1473208,0.9037,0.0273,0.3593,0.8545,-0.7935,0.8545
1473228,0.9028,0.026,0.3579,0.6104,-0.4272,0.7935
1473252,0.9022,0.0288,0.3599,0.8545,-0.1831,0.7324
1473272,0.9043,0.0312,0.3596,0.9155,-0.3662,0.4883
1473292,0.9071,0.03,0.3595,1.0376,-0.3662,0.6104
1473312,0.9127,0.0249,0.3586,1.0986,-0.4883,0.6714
1473332,0.91,0.0236,0.3611,0.9766,-0.5493,0.6104
1473352,0.907,0.027,0.3606,1.1597,-0.4272,0.5493
1473372,0.9049,0.0239,0.3582,1.3428,-0.3662,0.4883
1473392,0.9099,0.0217,0.3556,1.0376,0.1221,0.4883
1473412,0.9099,0.0276,0.3541,0.9766,0.0,0.2441
1473432,0.9099,0.0275,0.353,1.0376,-0.061,0.3052
1473452,0.9113,0.0238,0.3529,0.6714,0.0,0.1221
1473472,0.9108,0.0231,0.3534,0.6714,-0.1831,0.061
1473492,0.91,0.0256,0.3549,0.3052,-0.3662,-0.061
1473512,0.9106,0.0266,0.3529,0.4883,-0.061,-0.1831
1473532,0.9102,0.025,0.3547,0.4883,-0.4883,-0.2441
1473552,0.9133,0.0255,0.3534,0.6714,-0.3052,-0.3662
1473572,0.912,0.0258,0.3566,0.4272,-0.4272,-0.1221
1473592,0.913,0.0266,0.3569,0.5493,-0.4272,-0.061
1473612,0.9124,0.0253,0.3555,0.7935,-0.5493,-0.061
1473632,0.911,0.0258,0.3549,0.7324,-0.6714,0.1831
1473652,0.9065,0.0264,0.3542,1.1597,-0.5493,0.2441
1473672,0.9084,0.0232,0.3535,1.1597,-0.5493,0.1831
1473692,0.9113,0.0221,0.3547,1.0986,-0.5493,0.1831
1473712,0.9077,0.0216,0.3539,0.9766,-0.7935,0.1831
1473732,0.905,0.0208,0.3553,0.9155,-0.5493,0.1831
1473753,0.9072,0.0216,0.356,0.7935,-0.6714,0.4272
1473776,0.9064,0.0215,0.3536,0.9766,-0.6714,0.4883
1473796,0.9052,0.0198,0.3536,0.8545,-0.4883,0.4883
1473816,0.9094,0.026,0.353,0.7324,-0.7324,0.4883
1473837,0.908,0.0229,0.3556,0.7935,-0.8545,0.4883
1473857,0.9133,0.0134,0.3546,0.6714,-0.5493,0.6104
1473877,0.9209,0.0209,0.3545,0.6104,-0.6714,0.5493
1473898,0.9158,0.0248,0.361,0.9766,-1.2207,0.7935
1473918,0.9092,0.0242,0.3591,0.7324,-0.9766,0.6104
1473938,0.9064,0.0264,0.355,0.9155,-0.7324,0.8545
1473958,0.9054,0.0287,0.3573,1.0986,-0.4883,1.0986
1473978,0.9036,0.0284,0.356,1.1597,-0.4883,1.0376
1473998,0.9009,0.0264,0.355,1.2817,-0.4883,0.9155
1474018,0.9033,0.0266,0.3536,1.2817,-0.4883,0.8545
1474038,0.9058,0.0264,0.356,1.2207,-0.5493,0.8545
1474058,0.9067,0.0254,0.3561,1.5259,-0.4883,0.6714
1474078,0.9064,0.0234,0.3582,1.5869,-0.4272,0.7324
1474098,0.9066,0.0248,0.3602,1.2207,-0.3052,0.6714
1474118,0.9093,0.021,0.3604,1.0986,-0.1831,0.7935
1474140,0.9175,0.0205,0.3575,0.7324,-0.061,0.6714
1474160,0.9188,0.0264,0.3589,0.6714,-0.4883,0.4883
1474180,0.9181,0.0271,0.3584,0.9155,-0.7324,0.6104
1474200,0.9153,0.026,0.3579,0.7935,-0.8545,0.7324
1474220,0.9128,0.025,0.3564,0.7935,-0.9766,0.5493
1474240,0.9073,0.0219,0.3568,0.7935,-1.0986,0.1831
1474260,0.9032,0.0211,0.3573,0.7935,-0.9155,0.0
1474280,0.9027,0.0221,0.3589,0.8545,-0.7935,0.0
1474300,0.9031,0.0222,0.3578,0.7935,-0.6104,0.0
1474322,0.9036,0.022,0.3553,0.6714,-0.7324,-0.061
1474342,0.9052,0.0223,0.3585,0.7324,-0.7324,0.0
1474362,0.906,0.022,0.3611,0.5493,-0.7324,0.1831
1474382,0.908,0.0228,0.3588,0.7324,-0.7935,0.1831
1474406,0.9091,0.0249,0.3636,0.3662,-0.7324,0.061
1474426,0.9121,0.0247,0.3621,0.5493,-0.7935,0.1221
1474446,0.9088,0.0219,0.3622,0.7935,-0.8545,0.1221
1474469,0.9038,0.022,0.3585,0.9155,-1.0376,0.3662
1474489,0.9041,0.0227,0.3596,0.7324,-0.6714,0.6714
1474509,0.9014,0.0236,0.3617,0.7324,-0.8545,0.9766
1474529,0.9,0.0248,0.3643,1.0376,-0.8545,1.0986
1474549,0.9031,0.0271,0.3611,0.9155,-0.9155,1.2207
1474569,0.9041,0.0272,0.3615,0.7935,-0.8545,1.0986
1474593,0.9045,0.0259,0.3638,1.1597,-0.9766,1.0376
1474633,0.9082,0.0242,0.3606,1.2817,-0.7324,1.0986
1474653,0.913,0.0182,0.3601,0.9766,-0.4272,0.7935
1474673,0.916,0.0226,0.3593,1.0986,-0.4883,0.7324
1474693,0.9117,0.0242,0.3617,1.2817,-1.1597,0.5493
1474715,0.9019,0.0239,0.3654,1.0986,-0.7935,0.6104
1474739,0.8997,0.0237,0.3646,1.0376,-0.4272,0.7324
1474760,0.9036,0.0259,0.3656,0.6714,-0.4883,0.7935
1474822,0.9116,0.03,0.365,1.1597,-0.7324,0.8545
1474842,0.9122,0.0286,0.3682,1.2207,-1.0376,0.7935
1474862,0.9072,0.0249,0.3666,1.3428,-1.0986,0.7935
1474882,0.905,0.0245,0.3679,1.2817,-0.9155,0.7935
1474902,0.902,0.0253,0.366,1.5869,-0.3662,0.4272
1474922,0.9086,0.0225,0.3652,1.6479,0.1221,0.3662
1474942,0.9139,0.0225,0.3615,1.3428,0.2441,0.4272
1474962,0.9105,0.0237,0.3606,1.0986,-0.4883,0.6104
1474984,0.907,0.0253,0.363,1.0376,-0.6104,0.4272
1475004,0.9054,0.0282,0.3611,1.0986,-0.9766,0.6104
1475025,0.8999,0.0265,0.3623,1.0376,-1.0376,0.7935
1475045,0.8972,0.0236,0.3621,1.0986,-0.7324,0.6104
1475065,0.8997,0.0234,0.3612,0.9155,-0.5493,0.3662
1475088,0.9022,0.0255,0.3616,0.9155,-0.4272,0.5493
1475108,0.9038,0.0265,0.3633,1.0376,-0.7935,0.6104
1475128,0.903,0.0269,0.3641,1.0376,-0.7935,0.6714
1475148,0.9027,0.0269,0.3623,0.9155,-0.6714,0.6104
1475171,0.9053,0.0272,0.3617,0.8545,-0.5493,0.6714
1475191,0.9071,0.0266,0.3616,1.2207,-0.7935,0.8545
1475211,0.9054,0.0251,0.3632,1.6479,-1.0376,1.0376
1475231,0.906,0.025,0.365,1.4038,-0.9766,0.9155
1475271,0.9114,0.0247,0.3644,1.2817,-0.7324,1.1597
1475291,0.9091,0.0249,0.3661,1.2207,-0.6714,1.1597
1475311,0.9054,0.0243,0.3662,1.2817,-0.9155,1.0986
1475331,0.9066,0.0281,0.3633,1.2817,-0.7935,0.9766
1475351,0.9069,0.0262,0.3613,1.4038,-0.8545,0.7324
1475372,0.905,0.0303,0.3615,1.2817,-0.8545,0.6104
1475394,0.9026,0.0236,0.3617,0.9155,-0.9155,0.4883
1475414,0.9049,0.0205,0.3638,0.7324,-0.7935,0.3662
1475434,0.9132,0.0204,0.3669,0.3052,-0.9766,0.3662
1475454,0.9106,0.0247,0.3673,0.1831,-1.2817,0.1221
1475474,0.8988,0.0237,0.3684,-0.3052,-1.0986,-0.1831
1475495,0.9031,0.0272,0.3711,-0.3052,-0.2441,-0.2441
1475517,0.9131,0.0284,0.3689,0.0,-0.4272,-0.3052
1475537,0.9064,0.0255,0.3685,0.1221,-0.6104,-0.1221
1475557,0.9037,0.025,0.3656,0.0,-0.7935,-0.2441
1475577,0.901,0.0302,0.3656,0.061,-0.8545,0.061
1475597,0.8993,0.0311,0.3639,0.1221,-0.7324,0.3052
1475621,0.8958,0.0308,0.3678,0.6104,-0.9155,0.4272
1475641,0.8933,0.0312,0.3678,0.9766,-0.6714,0.4883
1475661,0.8934,0.031,0.3701,1.2207,-0.6714,0.8545
1475681,0.8986,0.0276,0.3671,1.3428,-0.2441,0.9155
1475701,0.9017,0.0254,0.3689,1.3428,0.061,0.9766
1475721,0.9071,0.0278,0.3702,1.5869,-0.4883,0.8545
1475741,0.9121,0.0276,0.3687,1.5869,-0.3052,0.7935
1475761,0.9133,0.0243,0.37,1.4648,-0.4883,0.7324
1475783,0.9124,0.0228,0.3676,1.3428,-0.6714,0.7324
1475804,0.9061,0.0214,0.3687,1.0986,-0.6104,0.2441
1475824,0.9015,0.0219,0.3688,0.9766,-0.6104,-0.061
1475844,0.897,0.0215,0.3649,0.6714,-0.3662,-0.3662
1475866,0.9004,0.022,0.3651,0.5493,-0.3052,-0.2441
1475886,0.9017,0.0195,0.3666,0.3662,0.0,-0.1831
1475910,0.903,0.0194,0.3687,0.6104,-0.1831,-0.3052
1475930,0.911,0.0261,0.3688,0.9766,-0.1221,-0.2441
1475950,0.9133,0.0308,0.3652,1.1597,-0.7324,-0.3052
1475970,0.9117,0.0319,0.3679,1.4648,-0.7935,-0.8545
1475990,0.9127,0.0316,0.369,1.2207,-1.0986,-1.0986
1476010,0.9114,0.027,0.3739,1.5259,-1.2817,-1.2207
1476032,0.9041,0.0199,0.3749,1.6479,-1.3428,-0.9766
1476053,0.9011,0.0181,0.3704,1.4038,-0.9155,-0.3662
1476073,0.9006,0.0189,0.3663,1.2817,-0.7324,-0.3052
1476093,0.9019,0.0219,0.3649,1.4038,-0.4883,-0.3052
1476113,0.9012,0.0243,0.3599,1.2207,-0.6714,-0.2441
1476133,0.8994,0.0204,0.361,1.0376,-0.6104,-0.061
1476153,0.8993,0.0138,0.3621,0.8545,-0.1221,-0.2441
1476173,0.9032,0.017,0.3629,0.5493,-0.3662,-0.4272
1476193,0.9028,0.0178,0.3668,0.4272,-0.8545,0.0
1476213,0.8984,0.0145,0.3707,0.4272,-0.7324,0.061
1476233,0.9009,0.0143,0.3761,0.0,-0.061,0.5493
1476257,0.9034,0.0138,0.3761,0.1221,0.1221,1.0376
1476277,0.9044,0.0216,0.3669,-0.3052,0.2441,0.8545
1476297,0.9033,0.0289,0.3679,-0.5493,0.6714,0.3662
1476318,0.9065,0.0294,0.3722,-0.2441,0.0,0.4883
1476338,0.9041,0.0201,0.3728,0.6714,-0.7935,0.3662
1476358,0.9026,0.0193,0.371,0.8545,-0.6104,0.3662
1476378,0.9038,0.0195,0.3657,0.2441,-0.4272,0.5493
1476398,0.8988,0.0211,0.3676,0.3052,-0.5493,0.3662
1476420,0.8992,0.0199,0.3674,0.2441,0.1221,0.1221
1476440,0.9053,0.0189,0.3667,0.4883,0.3662,0.1221
1476460,0.9087,0.0216,0.3668,0.6714,-0.3052,0.3052
1476481,0.9071,0.0187,0.368,0.6104,-0.3052,0.4272
1476501,0.9077,0.0199,0.3684,0.4272,-0.1831,0.6104
1476521,0.9067,0.0194,0.3682,0.4883,-0.3052,0.6104
1476544,0.9059,0.0206,0.3705,0.6104,-0.4272,0.7935
1476564,0.9097,0.0229,0.3679,0.4883,-0.2441,0.7935
1476584,0.9092,0.0239,0.3696,0.4883,-0.4883,0.7935
1476604,0.9103,0.0254,0.3693,0.6104,-0.5493,0.6104
1476624,0.9119,0.0254,0.3684,0.7324,-0.9155,0.7935
1476644,0.9106,0.0242,0.3663,0.8545,-1.0986,0.8545
1476664,0.9049,0.025,0.3684,0.6714,-1.2817,0.7324
1476684,0.9052,0.0232,0.3677,0.7935,-0.9766,0.6104
1476704,0.9041,0.0214,0.3665,0.8545,-0.8545,0.7324
1476724,0.9039,0.022,0.369,0.6714,-0.9766,0.6714
1476748,0.8966,0.0221,0.3689,0.6104,-0.9155,0.6714
1476768,0.8997,0.0259,0.365,0.5493,-0.6104,0.6714
1476788,0.903,0.0264,0.3717,0.5493,-0.7324,0.8545
1476808,0.9027,0.0231,0.3684,0.7324,-1.0376,0.7935
1476890,0.9053,0.0232,0.3683,0.8545,-0.5493,0.9155
1476910,0.9044,0.0289,0.3724,0.7935,-0.9155,0.9766
1476930,0.8999,0.0271,0.3732,1.2817,-1.1597,1.1597
1476950,0.8975,0.0259,0.3721,1.1597,-1.0376,1.4038
1476970,0.8964,0.0233,0.3765,1.0376,-0.8545,1.4038
1476990,0.8948,0.0225,0.3754,1.0376,-0.7324,1.2817
1477010,0.8956,0.0203,0.3746,0.9155,-0.6104,1.2207
1477030,0.8971,0.0237,0.3745,0.7935,-0.3052,1.0986
1477050,0.8986,0.0282,0.3733,0.8545,-0.2441,0.9766
1477070,0.897,0.0281,0.3727,0.7935,-0.3052,0.8545
1477090,0.9001,0.0254,0.3748,0.4883,0.0,1.0376
1477110,0.8999,0.0276,0.3726,0.7935,-0.061,0.7324
1477130,0.8988,0.0273,0.3749,1.0986,0.061,0.7324
1477151,0.911,0.0255,0.3722,0.8545,0.3662,0.5493
1477171,0.9092,0.0254,0.3712,0.6714,0.2441,0.4883
1477191,0.9087,0.0275,0.37,0.7324,0.061,0.2441
1477211,0.9048,0.0275,0.369,0.5493,0.061,0.4272
1477231,0.902,0.0245,0.3682,0.4272,-0.2441,0.4272
1477251,0.8969,0.0216,0.3667,0.3052,0.3052,0.4272
1477273,0.8978,0.0227,0.3647,-0.061,0.6714,0.1831
1477293,0.8998,0.0258,0.3651,0.0,0.9766,-0.1221
1477313,0.9001,0.0253,0.3643,0.061,0.6104,-0.1831
1477336,0.9021,0.0238,0.3649,-0.3052,0.3052,-0.1831
1477356,0.9005,0.025,0.3652,0.0,0.2441,-0.1831
1477376,0.8989,0.0262,0.3661,0.1221,0.061,-0.1831
1477396,0.8942,0.0276,0.3661,0.4272,0.4272,-0.3052
1477417,0.8916,0.0288,0.3685,0.7935,0.6714,-0.061
1477437,0.8942,0.0289,0.3689,0.6714,0.7324,0.1221
1477457,0.9044,0.0277,0.3698,0.6714,0.6104,0.2441
1477477,0.9113,0.0262,0.3711,0.6104,0.6714,0.4272
1477497,0.9185,0.0286,0.3696,0.8545,0.8545,0.5493
1477519,0.9281,0.0309,0.3676,1.1597,0.1831,0.3662
1477539,0.9283,0.0292,0.369,1.3428,-0.3662,0.3052
1477559,0.9219,0.0302,0.3597,1.1597,-0.4883,0.3052
1477579,0.9117,0.0276,0.3634,1.1597,-0.7935,0.3662
1477603,0.9088,0.0233,0.3621,1.0376,-0.1831,0.4272
1477623,0.9111,0.0242,0.3593,0.9766,-0.3662,0.4272
1477646,0.9102,0.0212,0.3596,0.9155,-0.7324,0.5493
1477666,0.8998,0.0201,0.3564,0.6714,-0.3662,0.4883
1477686,0.8955,0.0181,0.3573,0.6104,-0.1831,0.3662
1477708,0.8883,0.02,0.3568,0.3052,0.6104,0.1831
1477728,0.8888,0.0238,0.3574,0.061,0.4883,-0.061
1477748,0.8947,0.0267,0.3602,-0.1831,0.4272,0.3662
1477768,0.903,0.0265,0.3611,-0.1221,0.061,0.5493
1477788,0.9071,0.0272,0.3646,-0.1221,0.061,0.2441
1477809,0.9164,0.0302,0.3668,0.2441,0.4883,0.1831
1477829,0.9193,0.0326,0.3655,0.3662,0.1831,0.1831
1477849,0.9182,0.0299,0.366,0.4883,0.061,0.1221
1477869,0.9194,0.028,0.3645,0.7324,0.3052,0.3662
1477893,0.9149,0.0315,0.3625,0.6714,0.061,0.061
1477916,0.9125,0.0294,0.3591,1.1597,-0.2441,0.4272
1477936,0.9132,0.0251,0.3583,0.7324,-0.3052,0.1831
1477956,0.9128,0.02,0.3579,0.4272,-0.3052,0.1221
1477979,0.9059,0.0199,0.3546,0.4272,-0.5493,-0.1221
1477999,0.8993,0.0208,0.358,0.6714,-0.5493,-0.4272
1478019,0.8958,0.0225,0.3574,0.3662,-0.6104,-0.3662
1478039,0.8953,0.0226,0.3627,0.3052,-0.3662,-0.061
1478059,0.9027,0.0237,0.3629,0.2441,0.1221,0.0
1478079,0.9119,0.0264,0.3574,0.4272,0.1831,0.1831
1478099,0.92,0.0282,0.3606,0.6714,-0.4272,0.2441
1478119,0.9226,0.0261,0.3628,0.5493,-0.8545,0.1831
1478139,0.9191,0.0253,0.3646,0.8545,-1.1597,0.061
1478159,0.9143,0.024,0.3613,0.9766,-1.1597,0.1221
1478179,0.9061,0.0236,0.3625,0.9155,-1.2207,0.1831
1478199,0.9047,0.0242,0.359,0.7324,-0.9155,0.2441
1478219,0.9066,0.0245,0.3574,0.9766,-0.6714,0.3052
1478239,0.9091,0.0272,0.353,0.9766,-0.5493,0.3052
1478259,0.9028,0.0283,0.3514,0.9155,-1.0376,0.3662
1478279,0.8992,0.0228,0.3521,0.9766,-1.2207,0.6714
1478299,0.902,0.0194,0.3529,0.8545,-1.0986,0.7324
1478320,0.906,0.0227,0.3597,0.6714,-1.0986,0.6104
1478340,0.9021,0.0234,0.3611,0.8545,-1.1597,0.5493
1478360,0.8986,0.0261,0.3676,0.3052,-0.7935,0.5493
1478381,0.9054,0.0277,0.3667,0.6104,-0.4272,0.6714
1478402,0.9084,0.0258,0.366,0.6104,-0.4272,0.9766
1478426,0.9086,0.0248,0.3618,0.6104,-0.9766,0.9155
1478446,0.9039,0.0275,0.3638,0.5493,-1.1597,0.7935
1478466,0.9022,0.0277,0.3633,0.7935,-1.2207,0.7935
1478486,0.9034,0.0253,0.3639,0.5493,-1.1597,0.7324
1478506,0.9015,0.0234,0.3668,0.4272,-1.1597,0.6714
1478526,0.897,0.0287,0.3706,0.4272,-0.8545,0.5493
1478546,0.8961,0.0261,0.3688,0.6104,-0.6714,0.4272
1478566,0.9022,0.0215,0.3693,0.6104,-0.3662,0.6714
1478586,0.9039,0.0255,0.3679,0.5493,-0.2441,0.5493
1478606,0.9037,0.0275,0.3666,0.6104,-0.6714,0.5493
1478626,0.9023,0.0255,0.3673,0.4272,-0.6104,0.5493
1478646,0.901,0.0271,0.3632,0.3052,-0.2441,0.7324
1478666,0.9022,0.0299,0.3671,0.5493,-0.1221,0.6714
1478686,0.9087,0.0311,0.3662,1.0376,-0.1221,0.9155
1478708,0.9109,0.027,0.3636,0.9155,-0.3052,0.7935
1478728,0.9109,0.0236,0.3639,1.0376,-0.3662,0.7324
1478748,0.9086,0.0253,0.3629,1.0986,-0.3662,0.7324
1478768,0.9043,0.0273,0.3641,0.9766,-0.6714,0.6714
1478792,0.903,0.0294,0.361,1.0986,-0.6104,0.7324
1478812,0.9033,0.0273,0.36,1.2207,-0.6714,0.7324
1478832,0.9078,0.0256,0.3618,0.7324,-0.4272,0.9155
1478852,0.9094,0.0277,0.3656,0.4272,-0.1221,0.6714
1478873,0.9153,0.0281,0.3656,0.8545,-0.2441,0.5493
1478893,0.9219,0.0299,0.3668,0.7324,-0.5493,0.6104
1478913,0.928,0.0271,0.3665,0.8545,-0.9155,0.4883
1478933,0.9275,0.0315,0.3679,0.7935,-1.1597,0.1831
1478953,0.9196,0.0378,0.3661,1.0986,-1.5259,0.1831
1478973,0.9114,0.0305,0.3647,1.0986,-1.8311,0.3662
1478993,0.9052,0.0275,0.3628,1.0986,-1.3428,0.3052
1479013,0.9056,0.0352,0.36,1.2817,-1.3428,0.2441
1479033,0.896,0.0333,0.3628,1.5869,-1.9531,0.3052
1479053,0.8907,0.0312,0.3666,1.5259,-1.8921,0.4883
1479073,0.8936,0.0281,0.3676,1.709,-1.77,0.7935
1479093,0.8943,0.0283,0.3687,1.8921,-1.8921,0.6104
1479114,0.8921,0.0266,0.3671,2.0752,-1.8921,0.6714
1479134,0.894,0.0247,0.3665,1.8311,-1.2207,0.6104
1479154,0.8978,0.0249,0.3705,1.709,-1.4648,0.5493
1479174,0.8984,0.0256,0.376,1.4648,-1.3428,0.1831
1479194,0.9014,0.022,0.376,1.0986,-1.4038,-0.1221
1479214,0.9064,0.021,0.3718,0.9766,-1.3428,-0.3052
1479234,0.9072,0.0208,0.3751,0.7935,-1.4648,-0.4272
1479256,0.9093,0.0183,0.3756,0.8545,-1.4038,-0.6714
1479276,0.9031,0.0266,0.3777,0.7324,-1.3428,-0.8545
1479296,0.8971,0.0273,0.377,0.9766,-1.2207,-0.8545
1479317,0.8967,0.0236,0.3738,0.8545,-0.9766,-0.6104
1479337,0.8943,0.0212,0.3732,1.2207,-0.7324,-0.2441
1479358,0.8937,0.019,0.3727,1.4648,-0.7324,-0.1221
1479378,0.8975,0.0177,0.3763,1.2817,-0.5493,0.3052
1479401,0.899,0.017,0.3755,1.0376,-0.6714,0.3662
1479421,0.8986,0.0171,0.3757,1.4038,-0.5493,0.3662
1479444,0.8944,0.0173,0.3763,1.3428,-0.5493,0.4272
1479464,0.8925,0.0176,0.3746,1.3428,-0.2441,0.6714
1479484,0.9008,0.0212,0.3746,0.7935,0.3052,0.7324
1479504,0.9374,0.0249,0.3761,0.4883,0.1221,0.4272
1479527,0.911,0.026,0.3782,0.4883,15.3809,0.6104
1479547,0.9115,0.0249,0.3767,0.7324,-0.3662,0.4883
1479567,0.9128,0.021,0.3777,0.6104,-0.4272,0.6104
1479587,0.9126,0.0194,0.3743,0.6714,-0.5493,0.4272
1479607,0.9086,0.0204,0.3745,0.6714,-0.7324,0.4272
1479627,0.9059,0.0221,0.3705,0.7935,-0.8545,0.3052
1479650,0.8964,0.0287,0.3705,0.9766,-1.0986,0.3662
1479670,0.8948,0.0199,0.369,0.9766,-0.7935,0.4883
1479690,0.9001,0.0187,0.3685,0.5493,-0.5493,0.061
1479710,0.9008,0.0228,0.37,0.6714,-0.8545,0.0
1479730,0.8961,0.0203,0.3746,0.6714,-1.0376,0.061
1479750,0.8971,0.0212,0.3787,0.3052,-0.6714,0.3662
1479770,0.8988,0.0199,0.3798,0.4272,-0.7324,0.7324
1479791,0.8989,0.0211,0.3794,0.5493,-0.5493,0.9155
1479811,0.8976,0.0216,0.38,0.5493,-0.5493,1.1597
1479831,0.8998,0.0245,0.3794,0.5493,-0.3052,0.8545
1479851,0.901,0.0265,0.3794,0.4883,-0.2441,0.9155
1479871,0.9004,0.0266,0.3793,0.8545,-0.4883,0.7935
1479891,0.8992,0.0249,0.3805,0.9766,-0.6104,0.8545
1479911,0.8959,0.0244,0.3785,0.6714,-0.5493,0.7935
1479931,0.8955,0.0214,0.3777,0.9766,-0.5493,0.7935
1479952,0.8987,0.0201,0.3763,0.8545,-0.4272,0.6104
1479973,0.8988,0.024,0.3756,0.8545,-0.3052,0.4272
1479993,0.8987,0.0247,0.3752,0.6104,-0.3052,0.6104
1480013,0.9,0.0222,0.3743,0.2441,0.0,0.5493
1480033,0.9043,0.0203,0.3757,0.061,-0.1831,0.3662
1480053,0.907,0.0204,0.376,0.0,-0.3052,0.4272
1480076,0.9121,0.0221,0.3743,-0.1831,-0.2441,0.4883
1480097,0.9156,0.0164,0.3741,-0.2441,-0.4272,0.1831
1480117,0.9175,0.0162,0.3774,-0.3052,-0.7935,0.0
1480137,0.9169,0.0176,0.3751,-0.5493,-1.0986,-0.1221
1480157,0.9102,0.0208,0.3754,-0.5493,-1.2207,0.1221
1480177,0.9066,0.0201,0.3748,-0.6714,-1.709,0.4883
1480197,0.9076,0.0204,0.3755,-0.6104,-1.6479,0.7324
1480217,0.9091,0.0211,0.3762,-0.4272,-1.9531,0.9155
1480237,0.91,0.021,0.3738,-0.4272,-2.2583,1.0376
1480257,0.9031,0.0234,0.38,-0.4883,-2.3804,1.2817
1480277,0.8989,0.0267,0.3804,-0.3662,-2.8687,1.4038
1480297,0.8915,0.0309,0.3824,0.0,-2.7466,1.77
1480317,0.8883,0.0333,0.3834,0.1831,-2.5635,1.9531
1480337,0.8859,0.035,0.382,0.6104,-2.3193,2.1973
1480357,0.8838,0.0336,0.3795,1.2817,-1.8921,2.3193
1480377,0.8862,0.0366,0.3762,1.4648,-1.5869,2.1973
1480397,0.8844,0.0364,0.3773,1.5869,-1.5869,2.0142
1480417,0.8823,0.0226,0.3798,1.4038,-1.2817,1.8311
1480437,0.8888,0.0266,0.3816,1.0986,-1.2207,1.5259
1480457,0.8937,0.0282,0.3879,1.1597,-1.3428,1.4038
1480477,0.89,0.026,0.3896,0.4883,-1.2207,1.3428
1480497,0.8887,0.0264,0.3928,0.1221,-0.7324,1.1597
1480517,0.8879,0.032,0.3956,-0.061,-0.4272,1.2207
1480538,0.8882,0.0388,0.3954,-0.3052,-0.4272,1.1597
1480558,0.8873,0.0358,0.3917,-0.2441,-0.4883,1.4038
1480578,0.8894,0.0349,0.3918,-0.5493,-0.1831,1.2207
1480598,0.8948,0.0336,0.3899,-0.6104,-0.061,0.9155
1480618,0.9037,0.0387,0.3892,-0.5493,-0.2441,0.7324
1480638,0.902,0.0396,0.3892,-0.3662,-0.4272,0.5493
1480658,0.9014,0.0455,0.389,-0.2441,-0.3052,0.6714
1480678,0.9009,0.0458,0.3882,0.1221,-0.2441,0.5493
1480698,0.9021,0.0457,0.3884,0.3662,-0.4883,0.4883
1480718,0.8988,0.0488,0.3895,0.9766,-0.6714,0.6714
1480738,0.9015,0.0475,0.3824,1.0986,-0.6714,0.7324
1480758,0.9033,0.0416,0.3818,1.1597,-0.3052,0.4883
1480780,0.9049,0.0397,0.3817,1.4648,-0.1831,0.3052
1480800,0.8993,0.0356,0.3815,1.8921,-0.3662,0.061
1480820,0.8943,0.0334,0.3771,2.0142,-0.6104,-0.3052
1480840,0.8894,0.0297,0.3795,1.77,-0.4272,-0.6104
1480860,0.8903,0.0289,0.38,1.4038,-0.5493,-0.4883
1480880,0.8949,0.0281,0.3823,1.2817,-0.5493,-0.4272
1480901,0.9022,0.0269,0.3822,0.7935,-0.6104,-0.3052
1480921,0.9047,0.0299,0.3815,0.5493,-0.8545,-0.3662
1480943,0.9005,0.0356,0.3857,0.4272,-1.2817,-0.3052
1480964,0.8958,0.0358,0.3875,0.4883,-1.0986,-0.3662
1480984,0.8948,0.037,0.3889,0.6714,-1.4038,-0.3052
1481004,0.8927,0.0344,0.3896,0.4883,-1.3428,-0.2441
1481024,0.8883,0.0325,0.3878,0.2441,-0.9766,-0.1221
1481044,0.8872,0.0273,0.3895,0.3052,-0.6714,0.0
1481064,0.8969,0.03,0.3866,0.1221,-0.4883,-0.3662
1481084,0.9021,0.0289,0.3866,0.6714,-0.5493,-0.4272
1481104,0.9,0.0339,0.3854,0.6104,-0.9766,-0.4272
1481124,0.8934,0.03,0.3853,0.6104,-1.4648,-0.061
1481144,0.8949,0.0239,0.385,0.6104,-1.4038,0.1221
1481167,0.9012,0.027,0.3925,0.4272,-1.0376,-0.1831
1481187,0.8992,0.0292,0.3922,0.5493,-1.2817,-0.3052
1481209,0.8923,0.0266,0.3959,0.4883,-0.9155,-0.1831
1481229,0.8925,0.0273,0.3953,0.6714,-0.3052,-0.1221
1481249,0.8921,0.0267,0.3938,0.4272,-0.5493,0.0
1481269,0.8833,0.0281,0.3911,0.6104,-0.5493,0.061
1481293,0.8832,0.0265,0.3938,0.7935,-0.4272,0.2441
1481317,0.8846,0.0232,0.3949,0.4883,-0.3052,0.4272
1481337,0.8876,0.0238,0.3936,0.5493,-0.2441,0.6714
1481357,0.891,0.0273,0.3911,0.5493,-0.4272,0.8545
1481377,0.8928,0.0326,0.3936,0.6714,-0.2441,0.9766
1481397,0.8983,0.0275,0.3901,0.9766,-0.4272,1.1597
1481418,0.9033,0.0228,0.39,0.7324,0.3662,1.0986
1481438,0.9061,0.024,0.3885,0.4883,0.1221,0.7324
1481458,0.9041,0.0253,0.3887,0.4883,-0.1831,0.7935
1481478,0.9006,0.0282,0.3901,0.3662,0.0,0.8545
1481499,0.899,0.0286,0.3893,0.061,-0.2441,1.0376
1481519,0.89,0.0295,0.3878,-0.1221,-0.3052,1.2207
1481539,0.8867,0.0288,0.3849,0.061,-0.3052,1.4648
1481559,0.8849,0.0276,0.3842,-0.1831,0.4272,1.1597
1481579,0.8865,0.0262,0.3817,0.0,0.7324,0.9155
1481599,0.8871,0.0295,0.3848,-0.061,0.9155,0.8545
1481619,0.8867,0.0314,0.3845,0.1831,0.4883,0.8545
1481640,0.8872,0.0319,0.3856,0.1221,0.4883,1.0986
1481660,0.8933,0.0341,0.3882,-0.1831,0.7935,1.4038
1481680,0.9012,0.0436,0.3888,0.3662,0.6714,1.709
1481700,0.9038,0.0476,0.3912,0.8545,0.7324,1.8311
1481720,0.9092,0.0475,0.3914,1.1597,0.1831,1.8311
1481740,0.9087,0.0404,0.3884,1.5869,0.0,2.0752
1481764,0.9087,0.0369,0.3868,1.5869,0.1221,1.8921
1481784,0.9061,0.0371,0.3854,1.4648,-0.1831,1.4648
1481804,0.9028,0.0372,0.3822,1.5259,-0.4272,1.2817
1481824,0.8995,0.0376,0.381,1.4648,-0.6104,1.0376
1481844,0.8954,0.0404,0.3766,1.1597,-0.8545,0.8545
1481864,0.8896,0.0343,0.376,0.9766,-0.5493,0.7935
1481884,0.8882,0.0292,0.3777,0.4883,-0.1831,0.6714
1481904,0.8993,0.0411,0.3807,0.3662,-0.061,0.3052
1481926,0.9004,0.045,0.3821,0.6104,-0.9155,0.1221
1481946,0.8951,0.0449,0.3871,0.3052,-0.8545,0.061
1481966,0.8999,0.0443,0.3872,0.9766,-0.6104,0.061
1481986,0.9031,0.0402,0.3885,0.7935,-0.8545,0.1221
1482006,0.902,0.04,0.3873,0.7935,-0.9155,0.0
1482026,0.8959,0.0392,0.3893,1.1597,-0.8545,-0.061
1482046,0.8937,0.0415,0.3859,1.0986,-0.6104,-0.1221
1482066,0.8911,0.0404,0.3853,1.4038,-0.8545,-0.3052
1482086,0.8904,0.0386,0.3824,1.3428,-0.6714,-0.061
1482106,0.8898,0.0352,0.3842,1.0986,-0.5493,0.0
1482126,0.8918,0.0391,0.3834,1.0986,-0.4272,-0.1221
1482146,0.8969,0.035,0.3849,1.2207,-0.6104,-0.1221
1482166,0.9032,0.0291,0.3849,1.0376,-0.5493,-0.1221
1482186,0.906,0.0322,0.3871,1.0376,-0.6104,-0.2441
1482206,0.9028,0.0355,0.3882,1.0376,-0.9766,-0.3052
1482226,0.8971,0.0348,0.3882,0.9155,-0.7935,-0.2441
1482246,0.8922,0.032,0.3868,1.0376,-0.6714,-0.1221
1482266,0.8912,0.0315,0.384,0.6104,-0.061,-0.1831
1482288,0.8892,0.0326,0.3837,0.6714,-0.3052,-0.3052
1482308,0.891,0.0311,0.3843,0.9766,-0.3052,-0.1221
1482328,0.8917,0.032,0.3857,0.6714,-0.061,-0.1221
1482348,0.8922,0.0352,0.3898,0.9766,-0.3052,-0.1221
1482368,0.8918,0.0356,0.3837,1.0376,-0.4883,0.2441
1482388,0.8951,0.0387,0.3857,1.2207,-0.5493,0.3662
1482410,0.8949,0.0392,0.3846,1.5869,-0.4272,0.3052
1482430,0.8984,0.0358,0.3867,1.77,-0.1831,0.1831
1482450,0.9032,0.0327,0.3885,1.5259,-0.1221,0.0
1482470,0.9001,0.0281,0.3915,1.5259,-0.4272,0.0
1482490,0.8994,0.0277,0.3907,1.3428,-0.3662,0.0
1482510,0.8972,0.0282,0.3898,1.1597,0.061,0.1831
1482530,0.8999,0.031,0.3873,1.0376,0.061,0.1221
1482550,0.9011,0.0316,0.3856,1.1597,-0.1831,0.1831
1482570,0.9037,0.0284,0.3815,1.0376,0.0,0.1831
1482590,0.9056,0.0294,0.3785,0.6714,-0.2441,-0.061
1482610,0.8992,0.0311,0.3777,0.4883,-0.4272,-0.061
1482630,0.8889,0.0233,0.3822,0.6104,-0.7324,-0.3052
1482650,0.8864,0.0266,0.38,0.4883,-0.5493,-0.4883
1482670,0.8877,0.0317,0.3881,0.6714,0.3052,-0.4272
1482690,0.8848,0.0272,0.3831,0.8545,1.0376,0.0
1482710,0.8882,0.0287,0.3848,0.4272,1.8311,-0.1221
1482730,0.8934,0.0338,0.3823,0.6714,2.1362,0.2441
1482750,0.9001,0.037,0.3817,1.1597,1.709,0.1221
1482770,0.9033,0.0355,0.3833,1.4038,1.2207,0.4883
1482790,0.9045,0.0326,0.3856,1.4648,0.5493,0.6104
1482810,0.9044,0.032,0.3837,1.8311,0.2441,0.7935
1482830,0.9065,0.0331,0.3827,2.1362,-0.1221,0.7935
1482850,0.9064,0.0299,0.3822,2.3193,-0.2441,0.7935
1482891,0.8938,0.0249,0.3833,2.1362,-0.5493,1.0986
1482911,0.897,0.0248,0.3816,1.709,0.0,0.9155
1482932,0.8983,0.0275,0.3812,1.5869,0.1831,0.7935
1482952,0.9008,0.0244,0.3795,1.4038,-0.4272,0.6714
1482972,0.9003,0.0223,0.3771,1.0986,-0.3662,0.7324
1482992,0.9022,0.0205,0.3773,0.7324,-0.5493,0.3052
1483012,0.9043,0.0217,0.375,0.6104,-0.6104,0.2441
1483032,0.9073,0.0259,0.3792,0.1831,-0.7935,0.061
1483052,0.9062,0.0256,0.3788,0.061,-0.8545,0.1831
1483076,0.9053,0.0276,0.3806,-0.3052,-0.9766,0.1221
1483096,0.9006,0.0294,0.3801,0.1221,-1.0376,0.3052
1483116,0.8896,0.0327,0.3839,0.2441,-1.2207,0.3052
1483136,0.884,0.0319,0.3817,0.6104,-0.9155,0.4883
1483156,0.8793,0.0272,0.3813,0.4883,-0.8545,0.5493
1483176,0.8794,0.027,0.3806,0.4272,-0.4883,0.5493
1483196,0.8802,0.0292,0.3792,0.6104,-0.061,0.8545
1483217,0.8904,0.0353,0.3817,0.9766,0.4272,0.7324
1483237,0.9039,0.0377,0.3826,1.4648,0.4272,0.9155
1483257,0.9084,0.0341,0.3831,1.3428,0.061,1.0986
1483277,0.9077,0.0317,0.3889,1.2817,0.3662,0.8545
1483301,0.9143,0.0315,0.3887,1.0986,0.5493,0.7935
1483321,0.915,0.0319,0.386,1.3428,-0.1221,0.6714
1483341,0.9124,0.0308,0.3827,1.2817,-0.5493,0.4883
1483361,0.9091,0.0319,0.3802,1.2207,-0.5493,0.3052
1483381,0.9042,0.0297,0.3792,0.9155,-0.3052,0.3052
1483401,0.9078,0.0227,0.3772,0.6714,-0.1221,0.3052
1483421,0.911,0.0267,0.3754,0.4272,-0.5493,0.3052
1483441,0.8971,0.0294,0.3751,0.3662,-1.2817,0.3662
1483461,0.8872,0.0264,0.3785,0.3052,-1.0376,0.1221
1483481,0.8828,0.0289,0.3804,0.4883,-0.1831,-0.2441
1483501,0.8834,0.0289,0.3778,0.2441,0.1831,-0.1221
1483521,0.8877,0.0276,0.3802,0.1831,0.3662,0.2441
1483541,0.8883,0.0269,0.3787,-0.1831,0.4272,0.4272
1483565,0.8937,0.0309,0.3823,-0.3662,0.7935,0.0
1483588,0.9011,0.0372,0.3843,0.1221,0.6714,0.0
1483608,0.9092,0.0433,0.3806,0.7935,0.5493,0.1221
1483629,0.91,0.0403,0.3813,0.9766,0.2441,0.3052
1483650,0.9028,0.0325,0.3811,0.9155,0.3052,0.3052
1483670,0.9036,0.0291,0.3777,1.3428,0.4883,0.2441
1483693,0.9095,0.0299,0.3722,1.5869,0.0,0.061
1483713,0.9056,0.0289,0.3741,1.5869,-0.4272,0.1221
1483734,0.9034,0.0267,0.3727,1.5259,-0.6104,0.0
1483754,0.903,0.0222,0.3712,1.4038,-0.5493,-0.061
1483774,0.8987,0.0201,0.3721,0.9155,-0.3662,0.0
1483794,0.897,0.0236,0.3712,0.6104,-0.6714,-0.3052
1483814,0.8921,0.0254,0.3735,0.7324,-0.6104,-0.1831
1483834,0.8922,0.0272,0.3749,0.6104,-0.2441,-0.3052
1483855,0.8942,0.025,0.374,0.4883,-0.4272,-0.1221
1483875,0.8973,0.0228,0.3762,0.061,-0.3662,-0.061
1483895,0.9033,0.0236,0.3763,0.0,-0.2441,-0.061
1483915,0.9069,0.0287,0.3789,0.0,-0.4883,-0.3052
1483938,0.9092,0.0308,0.3784,0.3052,-0.6714,-0.1831
1483958,0.9081,0.0308,0.3822,0.6104,-0.9155,-0.061
1483979,0.9066,0.0288,0.3806,0.6104,-0.7935,0.0
1483999,0.9026,0.0261,0.3788,0.6714,-0.6714,0.1831
1484020,0.8999,0.0282,0.3739,1.0376,-0.7324,-0.061
1484040,0.899,0.0317,0.3715,1.4038,-0.7324,0.0
1484060,0.8972,0.0276,0.3716,1.4038,-0.6714,0.061
1484080,0.902,0.031,0.3682,1.3428,-0.8545,0.1831
1484100,0.9355,0.0212,0.3688,0.9155,-1.0986,0.1831
1484120,0.91,0.017,0.3702,0.4883,-1.1597,0.3662
1484142,0.9135,0.0206,0.379,0.4272,-1.3428,0.3052
1484162,0.9136,0.0255,0.3802,0.4883,-1.709,0.2441
1484182,0.9076,0.0298,0.3816,0.4883,-1.709,0.3052
1484202,0.9003,0.031,0.3787,0.4272,-1.4038,0.3662
1484222,0.9011,0.0284,0.3778,0.4272,-1.0376,0.4272
1484242,0.903,0.0271,0.3768,0.6104,-1.0986,0.5493
1484262,0.9008,0.0278,0.3756,0.9766,-1.5259,0.3662
1484282,0.8981,0.0282,0.3756,1.0376,-1.709,0.3662
1484304,0.8887,0.0254,0.3777,1.2817,-1.8921,0.4883
1484324,0.8864,0.0239,0.3818,1.2817,-1.5259,0.4883
1484344,0.894,0.0248,0.3823,1.4648,-1.5259,0.4272
1484364,0.8961,0.0265,0.3839,1.1597,-1.4648,0.3662
1484387,0.9022,0.0199,0.384,1.1597,-1.1597,0.3662
1484407,0.9038,0.0206,0.3892,1.1597,-1.3428,0.3662
1484427,0.8999,0.0222,0.3892,1.1597,-1.6479,0.4272
1484448,0.8925,0.0211,0.3854,0.9766,-1.77,0.4883
1484468,0.8843,0.0194,0.3861,0.3052,-1.4648,0.4883
1484488,0.885,0.0211,0.3862,0.5493,-1.0986,0.6104
1484510,0.8949,0.0255,0.3883,0.4883,-0.6104,0.4272
1484530,0.9027,0.0269,0.3864,0.4883,-0.7324,0.3662
1484551,0.9075,0.0245,0.3893,0.5493,-0.9155,0.3662
1484571,0.9043,0.0244,0.392,0.6714,-1.0986,0.3052
1484594,0.9036,0.0261,0.3938,0.8545,-1.2817,-0.1831
1484615,0.9,0.0265,0.3928,1.0376,-1.4038,0.1221
1484635,0.8928,0.0242,0.3948,0.9155,-1.5259,0.3662
1484655,0.8892,0.0236,0.3921,0.7324,-1.3428,0.4883
1484678,0.884,0.0223,0.3866,0.4272,-0.8545,0.3662
1484698,0.8832,0.0255,0.3815,0.4272,-0.3052,0.1831
1484718,0.8868,0.0283,0.38,0.3052,-0.4883,0.2441
1484738,0.8866,0.0211,0.3801,0.3662,-0.6714,0.3052
1484758,0.8879,0.0215,0.3793,0.061,-0.7324,0.3662
1484778,0.8947,0.0238,0.3778,-0.1831,-0.9155,0.4272
1484798,0.8959,0.0272,0.3826,0.061,-1.2817,0.2441
1484818,0.9034,0.0297,0.3917,0.061,-1.2207,0.1221
1484838,0.9075,0.0349,0.3954,0.3662,-1.3428,0.3052
1484858,0.9025,0.0345,0.3956,0.3662,-1.3428,0.3052
1484878,0.8973,0.0364,0.3986,0.4883,-1.2207,0.3052
1484898,0.8953,0.0359,0.3983,1.2207,-1.4038,0.1831
