timestamp,ax,ay,az,gx,gy,gz
3217857,0.6152,0.3253,0.2971,1.6479,-8.0566,-15.625
3217877,0.5674,0.3022,0.2722,9.3994,-2.8687,-14.4043
3217897,0.545,0.2875,0.2899,19.4092,0.6714,-12.8174
3217917,0.5012,0.2561,0.288,39.6118,-0.9155,-10.9863
3217937,0.4598,0.171,0.4617,52.7344,-2.8076,-7.9956
3217959,0.6744,0.0171,0.412,55.481,2.6855,0.7935
3217999,0.8801,-0.4755,0.5355,42.3584,-30.8228,6.6528
3218019,0.9797,-0.4799,0.5547,47.8516,-30.8838,4.1504
3218039,1.1028,-0.3989,0.5485,56.6406,-31.8604,3.1128
3218059,1.1439,-0.3429,0.6615,56.3354,-10.0098,9.7656
3218079,1.2673,-0.2648,0.7374,54.0161,-18.1885,18.0664
3218099,1.2717,-0.3076,0.7034,44.0674,-14.5874,24.5972
3218119,1.24,-0.3258,0.6921,40.7715,-11.6577,25.5737
3218142,1.1261,-0.308,0.5731,38.269,-9.9487,28.9307
3218162,0.8915,-0.2336,0.4933,36.0718,0.3052,34.1187
3218183,0.7103,-0.2412,0.4335,40.3442,4.2114,37.2314
3218203,0.6138,-0.2444,0.4442,37.2925,12.085,38.8184
3218223,0.552,-0.2089,0.516,33.5083,13.6108,39.2456
3218247,0.3977,-0.2727,0.475,19.8975,6.4087,39.3066
3218267,0.3918,-0.3712,0.4236,1.9531,6.958,33.4473
3218287,0.4517,-0.4629,0.4181,-9.3994,8.667,26.2451
3218307,0.4811,-0.455,0.4276,-16.3574,9.3384,20.9351
3218330,0.2439,-0.3434,0.4335,-10.6201,0.061,16.3574
3218350,0.1901,-0.2502,0.2473,-23.9258,30.2124,10.9863
3218373,0.4449,-0.007,0.1559,-56.1523,50.6592,5.4932
3218393,1.4299,0.3522,-0.397,-126.0376,83.0688,-9.5825
3218413,0.9696,0.3193,0.4181,-60.2417,117.0044,-19.4702
3218436,0.9852,0.0753,0.589,-61.8286,9.4604,13.4277
3218456,1.3948,0.0879,0.4337,-75.9277,24.4141,-5.127
3218476,1.4832,0.1608,0.5818,-81.604,9.0942,-15.7471
3218499,1.5431,0.1848,0.5549,-63.1104,-13.4888,-28.2593
3218519,1.5188,0.2003,0.5415,-47.6074,-15.8691,-33.02
3218540,1.3949,0.2383,0.4521,-36.7432,-18.7378,-36.5601
3218560,1.2115,0.214,0.3827,-30.1514,-21.4844,-39.1846
3218580,0.9193,0.1689,0.3732,-24.5361,-15.3198,-39.1235
3218600,0.7904,0.199,0.4006,-18.6157,-11.3525,-38.147
3218620,0.6084,0.1962,0.3961,-2.1973,-20.9351,-36.0718
3218640,0.4537,0.2416,0.3757,13.0615,-31.4331,-32.959
3218660,0.3162,0.27,0.3542,33.3252,-37.8418,-30.5786
3218680,0.3079,0.377,0.2808,57.0679,-33.8135,-25.8789
3218700,0.2791,0.4225,0.168,65.0635,-25.5127,-19.5923
3218723,0.2753,0.2574,0.1799,58.5938,-11.0474,-6.4087
3218743,0.2145,0.1224,0.2715,60.3027,-2.0752,1.5869
3218763,0.2704,-0.1476,0.3397,58.4106,21.0571,7.2021
3218783,1.3254,-0.4304,0.2551,-55.542,108.5815,-12.8784
3218803,1.078,-0.2052,1.1407,12.5122,117.3706,-18.6157
3218823,1.2687,-0.368,0.6132,33.5693,33.7524,-1.0376
3218843,1.3157,-0.4396,0.6547,73.6084,-40.5273,-10.498
3218863,1.1639,-0.4307,0.714,89.6606,-61.8286,2.8076
3218883,1.3018,-0.3057,0.7272,80.6885,-3.6011,18.2495
3218903,1.366,-0.2775,0.7172,71.0449,-6.0425,31.1279
3218923,1.1118,-0.4253,0.543,51.2085,-21.4844,44.4946
3218943,1.0121,-0.3654,0.4677,42.6636,3.54,49.4385
3218963,0.8229,-0.2847,0.4359,38.8184,24.9634,48.2178
3218983,0.7153,-0.2979,0.4065,36.7432,31.4331,48.7671
3219003,0.5909,-0.2976,0.3484,33.3862,29.9683,48.7671
3219023,0.5103,-0.3318,0.3302,27.4048,12.9395,45.6543
3219044,0.4716,-0.3552,0.3324,23.8037,-2.1362,43.396
3219064,0.4446,-0.4058,0.3268,9.3994,-18.0664,37.0483
3219084,0.3679,-0.4568,0.2559,-5.7983,-15.3198,25.0854
3219107,0.2432,-0.3334,0.2994,-27.71,-12.0239,18.5547
3219127,0.1598,-0.2721,0.2606,-27.6489,4.0894,7.8125
3219147,0.1776,-0.2577,0.1989,-39.4287,17.8833,0.7324
3219169,0.748,-0.1912,-0.2601,-92.4072,32.1655,-4.3945
3219189,1.8766,0.1381,-0.6703,-235.8398,103.4546,-41.1987
3219209,1.3911,0.4927,0.7367,-69.9463,181.8848,-62.561
3219229,1.0597,0.1454,0.502,-59.9365,18.7378,1.4648
3219250,1.3147,0.2054,0.3784,-95.1538,-5.0659,1.1597
3219270,1.5229,0.1101,0.6071,-99.5483,-24.7803,-23.0103
3219290,1.5231,0.1915,0.4838,-80.4443,-42.5415,-41.8091
3219310,1.4839,0.1753,0.4653,-63.9038,-30.3955,-43.9453
3219333,1.3107,0.163,0.3816,-48.2788,-23.9258,-41.748
3219353,1.0797,0.1616,0.3315,-39.1846,-15.3809,-39.4897
3219413,0.6311,0.2292,0.3312,-14.7705,-5.0659,-36.8652
3219483,0.4854,0.3057,0.1848,13.5498,-6.4697,-21.9727
3219544,0.2467,0.1515,0.2615,46.0205,-10.1318,-3.9062
3219586,0.9313,-0.3146,-0.1768,56.2744,-7.7515,14.4653
3219606,1.5704,-0.2004,0.9182,9.6436,44.4946,1.3428
3219627,1.4409,-0.506,0.7668,24.7803,22.4609,24.5361
3219647,1.176,-0.4363,0.5085,60.9131,-55.7251,20.2637
3219667,1.2665,-0.3889,0.6307,87.4634,-73.2422,19.7144
3219687,1.2314,-0.3556,0.4581,87.7686,-27.2217,25.8789
3219707,1.4122,-0.2897,0.6371,75.4395,-15.625,35.8276
3219727,1.3416,-0.3252,0.6102,52.124,-31.25,48.9502
3219747,1.0925,-0.3571,0.4851,41.748,-15.3198,53.6499
3219767,0.9337,-0.3126,0.4857,38.147,-1.6479,57.4951
3219787,0.7803,-0.2784,0.4312,35.5835,5.3711,56.5796
3219807,0.6854,-0.2924,0.4279,30.3345,8.7891,56.0913
3219827,0.6007,-0.2922,0.4471,15.9302,2.3804,52.7344
3219847,0.4971,-0.3057,0.42,16.6626,-6.7139,48.4619
3219869,0.4066,-0.3689,0.3463,19.8364,-20.3247,37.3535
3219889,0.4259,-0.4055,0.2482,12.6953,-25.0244,24.6582
3219911,0.3264,-0.2798,0.2909,1.2817,-26.4282,9.8877
3219931,0.2196,-0.1647,0.3502,-4.8218,-23.5596,4.1504
3219951,0.0762,-0.178,0.1602,-4.3945,-7.9956,-4.0283
3219971,0.2325,-0.1152,0.0864,-27.2827,15.3809,-4.6997
3219991,0.9879,-0.0464,-0.1178,-116.394,38.269,-1.0986
3220011,1.6078,0.4272,2.2764,-224.6704,132.4463,-21.5454
3220034,1.0145,0.0356,0.8862,-66.9556,-7.0801,7.8735
3220054,1.2427,0.1322,0.6049,-69.0308,-46.2036,11.1084
3220074,1.5227,0.2545,0.8031,-96.4966,37.7197,-1.5869
3220094,1.6439,0.1537,0.7189,-81.0547,-32.7148,-25.6348
3220114,1.5077,0.2733,0.6847,-67.627,-44.0063,-40.1611
3220174,0.9427,0.2161,0.4062,-30.5176,-18.6157,-50.293
3220215,0.6479,0.2635,0.4116,-9.0942,4.3335,-49.8047
3220235,0.4534,0.2935,0.4005,5.127,-3.1738,-42.9077
3220255,0.3096,0.2815,0.3361,22.4609,-18.7988,-33.9966
3220275,0.2717,0.2955,0.2533,34.1187,-18.4937,-27.5879
3220295,0.2726,0.373,0.2321,42.4805,-15.8691,-15.1367
3220315,0.3411,0.2993,0.2273,47.4854,-13.1836,-9.9487
3220335,0.2128,0.1709,0.2185,51.6357,-14.4043,-7.0801
3220355,0.1488,0.1404,0.235,68.6646,-13.3057,-1.1597
3220375,0.2179,-0.0172,0.2902,73.2422,14.7095,8.4229
3220395,1.6329,-0.4878,1.0521,-35.5835,58.8379,16.6016
3220416,1.3785,-0.3663,0.5438,-13.6719,69.2749,8.7891
3220436,1.0936,-0.504,0.5342,45.3491,-12.207,26.9775
3220456,1.271,-0.474,0.5913,76.355,-32.0435,18.4326
3220476,1.2449,-0.3473,0.5935,95.8862,-39.7339,12.8784
3220496,1.3959,-0.3248,0.7004,81.665,-7.9346,23.8647
3220516,1.4323,-0.3906,0.7069,57.4341,-33.8745,39.2456
3220536,1.1814,-0.4268,0.5797,51.0254,-39.6118,42.3584
3220556,0.9041,-0.3164,0.5006,43.5791,-7.6294,49.8657
3220576,0.76,-0.3036,0.4685,37.7808,5.4321,51.3916
3220600,0.6572,-0.2925,0.4427,36.499,11.1084,51.4526
3220620,0.5325,-0.2863,0.4163,34.9121,2.6245,51.8188
3220640,0.4181,-0.3707,0.3962,30.7007,-1.709,50.4761
3220660,0.3759,-0.4703,0.3436,14.9536,-13.4277,40.2222
3220680,0.3552,-0.4426,0.2913,1.9531,-13.0005,27.0386
3220700,0.2535,-0.36,0.3282,-0.4883,-14.9536,11.5356
3220722,0.1539,-0.2435,0.3839,0.3662,-18.4326,9.2773
3220742,0.0942,-0.2422,0.2118,-6.8359,-7.5073,4.5776
3220762,0.4497,-0.1617,0.1145,-57.0679,20.9961,0.2441
3220782,1.6425,0.1775,-0.0466,-181.0913,41.3208,-0.061
3220802,1.6116,0.2904,1.5675,-82.2144,112.915,-21.6064
3220822,1.1895,0.1913,0.8667,-60.1807,-7.4463,7.4463
3220842,1.2405,0.1372,0.6179,-76.1719,-15.1978,-1.9531
3220862,1.312,0.1167,0.8177,-100.1587,49.3164,-7.019
3220884,1.5416,0.0251,0.6349,-84.5337,-19.104,-29.3579
3220904,1.5084,0.1149,0.5741,-60.9131,-17.0288,-39.6729
3220924,1.4172,0.1697,0.4828,-40.5273,-9.1553,-43.457
3220944,1.1832,0.1478,0.4216,-33.5693,-12.0239,-42.1143
3220964,0.915,0.1619,0.3942,-26.8555,-5.8594,-42.9688
3220984,0.6842,0.1722,0.4032,-19.4702,6.2256,-42.6636
3221004,0.5658,0.1903,0.4359,-10.6812,1.5259,-40.3442
3221024,0.4368,0.2278,0.4065,-1.77,-10.8643,-35.7666
3221044,0.3228,0.2523,0.394,22.0947,-15.5029,-31.8604
3221064,0.2745,0.2932,0.2429,35.4004,-10.3149,-26.8555
3221085,0.2991,0.3113,0.1638,37.1094,-5.9204,-22.0947
3221105,0.4043,0.2488,0.1079,27.771,-2.3193,-16.7847
3221127,0.3248,0.2133,0.1838,41.8091,-1.0986,-10.8643
3221147,0.1946,0.182,0.286,63.2324,0.7935,-4.6997
3221167,0.4657,-0.0988,0.2297,54.7485,20.3247,12.5122
3221187,1.5042,-0.3922,-0.0621,-46.936,79.3457,5.7983
3221209,1.6143,-0.5634,0.8754,6.0425,90.0879,9.3994
3221229,1.2139,-0.436,0.5968,63.9038,-29.2358,28.8696
3221249,1.3368,-0.418,0.6438,99.1211,-59.021,22.3389
3221269,1.2056,-0.3551,0.489,104.3701,-54.9316,15.7471
3221289,1.3574,-0.343,0.6775,87.8906,-6.7749,29.9683
3221309,1.3733,-0.3516,0.6595,66.9556,-16.5405,42.2974
3221329,1.1056,-0.3942,0.4927,50.4761,-24.353,50.354
3221349,0.9288,-0.3557,0.4423,47.9126,-12.7563,56.9458
3221369,0.7876,-0.3134,0.4209,45.2881,1.0986,58.5327
3221389,0.6205,-0.3236,0.3873,37.4756,10.8032,55.8472
3221413,0.4591,-0.3503,0.4037,30.1514,-0.2441,48.8281
3221433,0.3827,-0.3477,0.361,31.25,-24.353,42.3584
3221453,0.329,-0.3479,0.2498,18.8599,-20.5688,31.0669
3221473,0.3253,-0.3646,0.2659,4.2114,-17.9443,21.5454
3221493,0.3257,-0.3092,0.3251,5.249,-17.1509,7.5073
3221513,0.2196,-0.2896,0.3235,1.709,-11.7798,4.3945
3221533,0.1011,-0.2256,0.2135,-7.019,-0.7935,0.0
3221553,0.3091,-0.1288,0.2031,-43.0298,20.3247,-1.1597
3221573,2.035,0.163,0.5864,-189.9414,65.7349,-2.0142
3221593,1.498,0.4358,0.9615,-99.1211,131.2866,-36.0107
3221613,0.9127,0.0481,0.7961,-61.1572,2.3804,22.583
3221636,1.1102,0.125,0.4769,-68.2373,-27.4048,3.418
3221656,1.4435,0.0634,0.7393,-98.5718,55.8472,0.0
3221677,1.6255,0.0081,0.6208,-84.7168,-29.7241,-29.1138
3221697,1.5063,0.0869,0.5908,-64.4531,-24.9634,-37.2314
3221717,1.4569,0.1401,0.5385,-43.5181,-26.3672,-40.3442
3221737,1.2793,0.1477,0.4164,-37.7808,-20.813,-40.5273
3221757,0.947,0.1556,0.3752,-31.6772,-9.1553,-43.1519
3221777,0.804,0.1478,0.3666,-23.1934,-1.1597,-44.1284
3221797,0.7394,0.1809,0.4056,-11.2915,-1.9531,-42.3584
3221817,0.5432,0.2114,0.4351,-0.7324,-21.9116,-33.7524
3221839,0.2616,0.2677,0.3406,5.188,-29.4189,-26.4282
3221859,0.2245,0.2843,0.293,25.0244,-25.5127,-22.0947
3221879,0.3104,0.317,0.2283,35.5835,-19.3481,-20.3857
3221899,0.3816,0.3241,0.1997,39.3677,-11.1084,-14.4653
3221919,0.2777,0.2882,0.2295,43.7622,-3.9062,-5.3711
3221939,0.1705,0.2582,0.2974,68.9087,-1.2207,0.6104
3221959,0.324,-0.0293,0.3604,81.4819,30.4565,10.376
3221981,1.4448,-0.212,1.0048,-24.292,78.4302,11.1084
3222001,1.2429,-0.5123,0.5773,3.479,28.4424,31.4331
3222021,1.1404,-0.4983,0.6414,52.3071,-5.4932,35.6445
3222043,1.2595,-0.3462,0.5286,73.7915,-39.3066,27.1606
3222063,1.37,-0.2739,0.6152,90.4541,-21.1182,11.9629
3222083,1.4832,-0.2689,0.6638,85.3882,-9.4604,21.4233
3222103,1.4269,-0.3246,0.6686,68.4204,-25.3296,30.7007
3222126,1.1672,-0.4093,0.528,61.8286,-33.6914,36.8042
3222147,1.012,-0.3772,0.4985,51.8799,-9.7656,43.5181
3222167,0.816,-0.3635,0.4238,43.8843,-3.6011,46.5698
3222187,0.6904,-0.368,0.4043,36.1938,1.6479,47.9126
3222207,0.5408,-0.3527,0.3977,24.7192,6.1646,45.4712
3222227,0.4495,-0.3594,0.3741,29.8462,-2.8687,44.4946
3222247,0.4302,-0.3716,0.4214,40.0391,-20.5078,35.4614
3222267,0.2915,-0.3959,0.1959,44.3726,-7.3853,26.7944
3222287,0.2655,-0.2926,0.2561,9.5825,-22.9492,17.5781
3222307,0.1564,-0.1935,0.2271,-5.0659,-18.5547,15.0757
3222327,0.1344,-0.1821,0.2448,-20.5078,-3.8452,10.1318
3222349,0.7668,-0.1632,0.0504,-90.0879,33.02,4.5776
3222369,1.9958,0.3099,1.1665,-178.772,125.3662,-9.3994
3222389,0.953,0.1368,0.6487,-53.5889,52.4902,3.3569
3222409,1.1201,0.0431,0.7874,-65.0635,22.8882,20.752
3222429,1.0596,0.0994,0.5466,-79.1626,-1.2817,-1.2207
3222449,1.3136,-0.0149,0.7722,-91.98,46.3257,1.0986
3222469,1.4008,-0.0016,0.6447,-80.5054,-29.9683,-33.3252
3222489,1.4575,0.1317,0.6293,-62.3779,-29.8462,-47.0581
3222509,1.4376,0.1748,0.5358,-51.2695,-21.0571,-47.9126
3222529,1.2986,0.1927,0.4712,-42.2363,-21.0571,-44.4946
3222552,1.0121,0.1837,0.3599,-38.8184,-7.1411,-41.9922
3222572,0.84,0.1863,0.3507,-29.9683,2.8687,-40.6494
3222592,0.6667,0.1792,0.3553,-22.3999,-1.709,-37.7197
3222613,0.5763,0.194,0.3354,-10.7422,-6.5918,-33.3252
3222633,0.4799,0.2158,0.3361,4.0894,-18.6768,-26.3062
3222653,0.3025,0.2726,0.3281,16.6016,-22.0337,-23.1934
3222673,0.2826,0.2874,0.287,33.5083,-14.8315,-18.4326
3222693,0.2885,0.3092,0.2665,38.6963,-17.0898,-13.0005
3222713,0.2822,0.3042,0.2616,46.5088,-15.0146,-7.7515
3222733,0.1512,0.2795,0.3141,62.1338,-7.2021,-1.709
3222753,0.2115,0.1454,0.3585,83.313,12.207,11.9019
3222774,1.1146,-0.2379,0.0342,32.7759,57.5562,20.6299
3222797,1.718,-0.6477,0.986,-5.9204,107.4219,26.4893
3222817,1.3505,-0.6122,0.8145,34.9731,-32.3486,23.5596
3222837,1.1252,-0.5763,0.7,77.5757,-52.3682,14.4043
3222857,1.1433,-0.3441,0.6614,95.459,-53.0396,3.8452
3222877,1.3016,-0.252,0.6931,88.9282,-18.0054,18.3716
3222897,1.2607,-0.3401,0.6155,62.0728,-13.3667,41.8091
3222917,1.2147,-0.3734,0.5886,48.7061,-10.7422,47.2412
3222937,1.0007,-0.3969,0.5179,41.1377,2.9297,50.6592
3222957,0.7954,-0.3181,0.5038,38.3911,6.0425,54.8096
3222980,0.6093,-0.2729,0.4755,32.4097,12.085,56.4575
3223000,0.5208,-0.3021,0.4402,32.3486,13.3667,53.833
3223020,0.4156,-0.3188,0.3837,31.6162,6.1646,48.3398
3223040,0.3386,-0.3284,0.3666,28.1982,4.5776,45.2881
3223060,0.2858,-0.3907,0.3242,14.8315,0.4883,31.9824
3223080,0.2515,-0.4756,0.2372,1.2817,-5.6152,22.0947
3223100,0.2208,-0.4666,0.1361,-28.3203,-10.7422,9.8267
3223122,0.2009,-0.2384,0.2424,-35.8276,-1.77,0.6714
3223142,0.1512,-0.1669,0.2148,-40.5884,16.4795,-6.5918
3223162,0.5767,-0.0021,0.1909,-74.8901,38.7573,-7.7515
3223183,1.9658,0.314,0.0747,-156.1279,75.6226,-3.2959
3223203,1.3185,0.3221,0.7692,-32.1045,80.9937,-7.4463
3223223,1.3961,0.3434,0.8689,-42.1143,-5.9814,15.0757
3223245,1.2104,0.1931,0.5868,-60.0586,-6.5918,1.709
3223265,1.4514,0.0308,0.7411,-65.3076,22.4609,8.9111
3223285,1.5221,0.0786,0.6191,-47.6685,-33.5693,-19.2261
3223305,1.4034,0.0916,0.6095,-27.1606,-9.8877,-27.2217
3223325,1.3513,0.1523,0.5496,-22.0337,-16.7847,-23.2544
3223349,1.0914,0.2058,0.4016,-6.2256,-15.3809,-21.6675
3223369,0.766,0.1537,0.3289,3.9062,-1.8921,-20.5078
3223389,0.6523,0.12,0.3213,12.4512,4.0283,-16.3574
3223449,0.4156,0.1133,0.2573,54.4434,-11.0474,-10.7422
3223469,0.3777,0.1584,0.2855,55.4199,-13.1836,-10.437
3223489,0.4398,0.254,0.267,57.0068,-31.25,3.54
3223509,0.5027,0.2234,0.1786,50.9033,-27.2827,9.6436
3223529,0.5165,0.1588,0.2701,45.2271,-12.207,10.437
3223549,0.2972,0.0977,0.2269,62.439,-0.1831,12.0239
3223569,0.2476,0.0574,0.2506,77.6367,-0.2441,18.4937
3223589,0.4657,-0.108,0.4154,81.9092,18.5547,24.1699
3223612,2.0708,-0.4905,0.7789,33.7524,49.8657,23.0713
3223633,1.2849,-0.5306,0.7513,42.1753,24.1089,35.8276
3223653,1.1117,-0.4933,0.7946,82.2144,-59.6924,33.2031
3223673,1.2843,-0.3494,0.7549,106.3843,-31.1279,21.9116
3223693,1.3132,-0.323,0.7382,102.1118,-20.1416,34.9121
3223713,1.4415,-0.323,0.6976,89.4165,-18.3716,45.6543
3223737,1.28,-0.3799,0.6071,71.3501,-12.3901,55.3589
3223757,1.0273,-0.3525,0.4968,69.0918,-10.7422,55.2368
3223777,0.9384,-0.322,0.4656,68.7256,-12.6953,57.312
3223797,0.7242,-0.2628,0.3789,62.8662,-4.0283,62.0728
3223817,0.6558,-0.2301,0.3694,56.8237,2.1362,62.7441
3223838,0.5338,-0.2369,0.3727,51.9409,2.7466,60.1196
3223858,0.4298,-0.2295,0.3542,60.0586,-6.4697,55.0537
3223880,0.3059,-0.3228,0.3402,62.6831,-5.188,47.7905
3223900,0.2299,-0.4047,0.2562,43.396,-5.0659,37.5366
3223920,0.2527,-0.4502,0.1538,20.9961,-9.3384,31.5552
3223940,0.317,-0.3834,0.1544,-10.3149,-4.6387,25.6958
3223960,0.323,-0.2942,0.2406,-20.874,8.3618,20.874
3223980,0.2651,-0.2236,0.3331,-46.7529,23.4985,16.1743
3224000,0.5452,-0.0857,0.4521,-82.4585,40.7104,9.2163
3224022,1.5525,0.2035,0.837,-82.7026,91.2476,-14.2212
3224042,1.5222,0.4386,0.7904,10.0098,31.6772,7.5684
3224062,1.3713,0.3828,0.8076,-6.1646,-7.2632,14.2212
3224082,1.1498,0.1456,0.7103,-30.5786,10.0708,8.2397
3224102,1.27,-0.0259,0.7963,-34.1797,5.8594,9.6436
3224122,1.478,-0.0127,0.7369,-14.2822,-13.6719,-1.2207
3224142,1.4408,0.0223,0.6969,-3.7842,-4.9438,-7.9346
3224162,1.3662,0.115,0.5715,8.5449,-1.3428,-9.9487
3224185,1.2354,0.1229,0.5051,16.1743,-3.8452,-8.0566
3224205,0.938,0.093,0.4264,29.1748,-1.0376,-5.4932
3224228,0.7711,0.088,0.3588,42.5415,-1.0986,-2.0142
3224248,0.5834,0.0564,0.3531,50.5371,-1.4648,1.0376
3224268,0.4791,0.0359,0.3595,60.4248,-12.2681,4.3945
3224288,0.3156,0.0748,0.3448,73.6084,-16.3574,9.1553
3224308,0.2899,0.0627,0.3108,80.9937,-14.7705,13.1226
3224328,0.2759,0.0753,0.2786,79.7119,-14.5874,14.7095
3224348,0.3031,0.0985,0.1791,78.064,-12.5732,19.2871
3224368,0.3696,0.132,0.0911,78.7354,-2.3193,25.2686
3224388,0.4083,0.1394,0.1129,86.1206,8.9111,27.4048
3224408,0.4178,0.1302,0.203,97.0459,19.5923,30.7007
3224431,0.9691,-0.1327,0.3591,85.8154,43.7622,39.6118
3224455,1.7657,-0.6569,0.6605,66.4062,58.6548,42.9077
3224475,1.5432,-0.7494,0.6429,85.8765,-8.8501,50.354
3224495,1.1696,-0.5214,0.6505,108.0933,-45.4102,44.7998
3224516,1.3436,-0.5509,0.6249,133.0566,-49.3774,38.6353
3224538,1.4037,-0.528,0.6417,130.0659,-36.1328,51.0864
3224559,1.387,-0.4624,0.6173,126.4648,-32.8979,64.8193
3224579,1.2866,-0.4595,0.5574,117.981,-22.644,75.9888
3224599,1.0697,-0.5022,0.4606,113.8916,-0.1831,77.7588
3224619,0.9055,-0.4764,0.4097,110.7788,-13.916,78.4302
3224639,0.6859,-0.4321,0.323,109.6191,-13.7329,80.3223
3224660,0.6349,-0.395,0.3024,107.8491,-9.3994,79.7729
3224680,0.5472,-0.343,0.2776,107.9712,-12.6343,80.5054
3224700,0.4309,-0.3279,0.2517,104.4922,-13.5498,80.0171
3224720,0.4209,-0.356,0.2404,101.3794,-11.5356,76.9653
3224740,0.3347,-0.438,0.24,88.3179,-12.8784,68.9087
3224760,0.3529,-0.499,0.2079,68.7256,-10.6201,61.9507
3224780,0.4719,-0.4703,0.2506,39.0015,-4.2114,51.2695
3224800,0.5292,-0.3802,0.3284,23.0713,0.3052,45.105
3224820,0.4705,-0.2548,0.3585,18.2495,6.7749,43.8843
3224840,0.3352,-0.1914,0.2214,21.7896,13.855,47.6685
3224860,0.4861,-0.2339,0.3988,3.1128,27.2827,45.8374
3224880,1.1135,-0.2017,0.3986,-34.9731,46.2646,28.9917
3224900,1.4447,0.3032,0.8102,18.3105,24.9634,32.2266
3224920,1.1931,0.1622,0.8182,44.4336,-12.5122,47.4854
3224940,1.3595,0.0732,0.6562,14.4043,-22.0947,43.7622
3224960,1.2999,-0.0645,0.7269,2.9907,2.7466,32.5928
3224980,1.4288,-0.1604,0.7087,8.0566,-10.0708,26.6724
3225000,1.41,-0.17,0.6846,16.2354,-3.6011,18.1885
3225020,1.4175,-0.1364,0.5881,22.3389,5.3711,8.4839
3225040,1.3326,-0.1124,0.479,23.6206,4.2114,2.8687
3225060,1.1559,-0.1218,0.4114,25.3906,8.4839,-3.9673
3225100,0.7725,-0.0709,0.317,33.4473,5.6763,-7.019
3225120,0.7268,-0.0242,0.3971,51.6968,-11.2305,-5.7373
3225140,0.6833,0.0455,0.3856,68.0542,-25.6958,-3.1738
3225160,0.5529,0.1134,0.2939,69.7632,-32.7148,0.3052
3225180,0.5272,0.1799,0.2244,67.0166,-19.7754,8.667
3225200,0.5331,0.1764,0.2186,65.6128,-6.3477,15.1978
3225220,0.5603,0.1882,0.2024,68.6646,-0.6104,18.1274
3225240,0.5128,0.2094,0.1682,77.8198,3.418,21.4233
3225260,0.334,0.1895,0.1538,90.21,1.8311,25.2686
3225280,0.2369,0.1365,0.1112,107.1777,-3.8452,28.5645
3225300,0.2321,-0.0245,0.2629,132.9956,-10.9863,36.8652
3225320,1.063,-0.896,-0.2076,105.3467,8.7891,45.5322
3225342,1.2999,-0.6222,0.9471,34.729,99.6704,31.0669
3225362,1.3108,-0.8164,0.8595,108.8257,-50.8423,53.5278
3225384,1.249,-0.537,0.7285,128.3569,-70.0073,42.6025
3225404,1.2723,-0.5487,0.6755,120.3613,-37.7197,33.02
3225424,1.384,-0.5544,0.6929,107.4219,-21.7285,47.6685
3225447,1.2759,-0.5125,0.6514,103.2715,-21.9727,57.7393
3225467,1.104,-0.4945,0.5255,95.52,-7.9346,64.5142
3225487,0.9668,-0.4565,0.4503,91.7969,-1.2207,68.5425
3225507,0.843,-0.395,0.4023,87.7686,4.2114,70.8618
3225527,0.6608,-0.3246,0.3407,86.853,6.3477,71.0449
3225547,0.5699,-0.2917,0.2838,90.271,9.7046,73.1812
3225567,0.4677,-0.3097,0.2971,86.9751,13.916,70.0684
3225587,0.4519,-0.3546,0.3158,89.4165,11.4136,65.1855
3225607,0.4333,-0.3663,0.2695,85.8765,-3.2959,55.9082
3225627,0.3643,-0.4312,0.1104,59.7534,-17.4561,50.5981
3225647,0.3519,-0.3892,0.2263,32.7759,-22.7661,45.2271
3225667,0.2009,-0.2968,0.2936,25.9399,-20.6299,39.6118
3225687,0.1774,-0.1926,0.1931,2.9297,1.5259,31.9214
3225707,0.3423,-0.1969,0.0996,-8.9111,7.9956,30.8228
3225727,1.2057,-0.0679,-0.2418,-99.3042,36.7432,28.0762
3225747,1.8485,0.2324,1.9607,-176.0864,134.4604,-7.9956
3225767,0.9413,-0.0569,0.8403,0.3052,0.2441,24.292
3225787,1.4302,0.1469,0.5355,-24.9023,-11.9019,34.6069
3225807,1.431,-0.1052,0.7434,-45.8984,31.7383,25.6348
3225827,1.5148,-0.2166,0.646,-40.7715,-29.4189,9.5825
3225847,1.5244,-0.1263,0.6855,-34.3018,-21.5454,-8.5449
3225867,1.4658,-0.0085,0.6434,-23.5596,-11.9629,-25.0854
3225887,1.3688,0.016,0.5519,-18.7378,-4.9438,-26.7944
3225907,1.1494,0.0057,0.4774,-15.3809,0.5493,-31.25
3225927,0.8556,0.0128,0.4038,-11.9019,5.3101,-34.1187
3225947,0.7212,0.045,0.3885,-7.3242,3.7231,-35.1562
3225970,0.6042,0.129,0.3796,13.3667,-1.77,-32.5928
3225990,0.5411,0.1737,0.3792,43.335,-12.4512,-23.7427
3226010,0.447,0.1719,0.2776,55.3589,-27.1606,-16.0522
3226030,0.4014,0.1674,0.1996,51.7578,-23.8037,-5.127
3226050,0.448,0.1908,0.1572,37.0483,-21.4844,2.1362
3226070,0.4541,0.2113,0.1569,38.4521,-22.8882,7.5684
3226090,0.2738,0.2344,0.2098,50.7202,-15.1978,10.376
3226113,0.1427,0.2251,0.2163,79.3457,-9.0942,12.9395
3226133,0.3108,0.1195,0.201,107.4829,1.2817,26.1841
3226153,1.5444,-0.4996,-0.2694,64.3921,22.2168,29.8462
3226173,1.5684,-0.9579,1.6562,-57.8613,112.2437,14.7095
3226193,0.8335,-0.2532,0.5221,54.0771,5.9814,38.5742
3226213,1.0096,-0.3519,0.5624,95.5811,-69.397,30.0903
3226235,1.297,-0.4028,0.6027,107.4219,-49.9268,22.0337
3226255,1.4443,-0.3722,0.7103,97.168,-14.9536,36.5601
3226275,1.5082,-0.3687,0.7225,83.7402,-21.1182,47.4854
3226295,1.2686,-0.4661,0.6102,74.2188,-22.0947,51.2695
3226316,1.1487,-0.4323,0.5515,68.1763,-9.3994,52.4902
3226336,0.9109,-0.3063,0.47,61.5234,2.3193,52.5513
3226357,0.7496,-0.3066,0.4175,57.9224,3.2349,53.2837
3226377,0.6904,-0.296,0.3887,48.5229,4.1504,51.6968
3226397,0.6049,-0.3221,0.4385,40.0391,5.6152,48.4009
3226417,0.4972,-0.3356,0.429,38.5132,1.3428,44.3115
3226437,0.3606,-0.3652,0.3453,45.2881,-4.8828,36.2549
3226457,0.4026,-0.4075,0.204,42.4805,-2.9907,30.1514
3226477,0.433,-0.4238,0.1593,8.8501,-7.9346,21.3623
3226501,0.3673,-0.2671,0.2178,-19.5312,-5.127,12.9395
3226524,0.1438,-0.1814,0.2778,-23.9868,6.958,5.6763
3226544,0.0858,-0.2327,0.1638,-40.0391,23.2544,3.0518
3226564,0.6112,-0.1345,0.0215,-120.7275,50.9033,0.7935
3226584,1.9948,0.2769,1.7476,-257.8735,80.6885,-15.8691
3226604,1.3127,0.5239,0.8262,-53.7109,110.8398,-42.9688
3226624,0.6691,0.0402,0.6206,-42.6025,-43.2129,0.0
3226644,1.1008,0.0302,0.4463,-91.98,13.3667,-15.3809
3226664,1.5719,-0.0142,0.6261,-103.0884,39.6729,-11.2305
3226684,1.52,0.0854,0.5253,-76.2329,-32.3486,-46.9971
3226704,1.4601,0.0819,0.5289,-66.1621,-19.043,-47.7295
3226724,1.4496,0.1415,0.527,-53.7109,-13.6719,-49.4385
3226744,1.2711,0.0566,0.4211,-41.9312,-12.8784,-42.7246
3226767,1.1534,0.0195,0.3785,-41.5649,-0.5493,-44.1895
3226787,0.8766,0.0966,0.3315,-30.3955,8.3618,-47.2412
3226808,0.7671,0.1384,0.3818,-19.8975,2.9907,-47.6685
3226828,0.6675,0.2135,0.3983,4.6997,-26.062,-38.5742
3226852,0.4893,0.226,0.2637,27.5269,-31.4941,-29.1748
3226872,0.4159,0.2705,0.1759,34.79,-27.5879,-24.9634
3226892,0.4341,0.2761,0.176,38.8184,-21.6064,-20.0806
3226912,0.4036,0.2367,0.1912,38.6963,-17.2729,-10.0098
3226932,0.1885,0.2278,0.261,45.7764,-20.752,-4.6387
3226955,0.1261,0.2441,0.3214,86.6089,-17.8833,5.4932
3226998,1.59,-0.7971,1.0341,-72.6318,80.5054,28.0151
3227018,1.3158,-0.6023,0.9833,-22.0947,88.1958,36.6821
3227038,1.1066,-0.4596,0.6425,52.124,-22.4609,38.7573
3227061,1.2174,-0.3298,0.6931,88.4399,-63.1714,21.2402
3227082,1.1862,-0.2437,0.4427,95.8862,-54.8706,15.9912
3227102,1.328,-0.2665,0.653,77.1484,-16.6016,36.8042
3227122,1.2617,-0.3287,0.6298,64.8804,-18.4937,44.9219
3227143,1.1364,-0.3203,0.5597,56.8848,-16.6016,49.0723
3227163,0.9987,-0.3021,0.4937,51.7578,-4.0283,52.8564
3227183,0.8363,-0.2585,0.451,51.2695,-2.1362,56.0913
3227203,0.7159,-0.259,0.4187,47.0581,-1.2817,54.3823
3227223,0.5714,-0.2692,0.3689,43.0298,-1.5259,50.415
3227245,0.5148,-0.2494,0.382,35.5225,-4.5776,44.5557
3227265,0.4114,-0.3281,0.326,34.4238,-12.2681,36.5601
3227285,0.3634,-0.4128,0.2457,25.7568,-19.7144,32.3486
3227306,0.29,-0.3638,0.2209,11.0474,-23.2544,27.0386
3227326,0.2303,-0.2643,0.2628,-1.8921,-10.5591,18.4937
3227346,0.1647,-0.2352,0.2396,-8.1787,-0.061,13.7939
3227366,0.1959,-0.1552,0.2417,-25.9399,11.5356,7.8735
3227386,0.5793,-0.105,0.204,-113.5254,34.5459,13.7939
3227406,1.9137,0.4427,2.0854,-280.3345,82.7026,-16.1133
3227426,0.9589,0.1661,0.8458,-49.9268,22.522,8.606
3227446,1.0927,0.1526,0.5447,-63.1714,-32.8979,-1.4648
3227466,1.0306,0.2064,0.585,-87.8296,28.3203,-20.1416
3227486,1.5922,0.1003,0.6649,-81.7261,-15.1367,-28.0762
3227509,1.5925,0.1533,0.6615,-69.5801,-27.3438,-42.7856
3227530,1.6173,0.1576,0.5807,-54.9316,-15.7471,-43.5791
3227550,1.4547,0.1713,0.5343,-49.2554,-13.4888,-42.5415
3227570,1.2681,0.1597,0.4694,-44.9219,-8.9111,-43.7012
3227590,0.9224,0.1407,0.4093,-37.1094,-2.0142,-44.6777
3227610,0.73,0.1083,0.3505,-26.9165,-0.9155,-48.3398
3227630,0.6335,0.1322,0.3356,-17.7002,-2.2583,-49.0723
3227653,0.5876,0.1824,0.3314,-6.6528,-3.2349,-47.8516
3227673,0.3994,0.2031,0.3018,8.1787,-12.7563,-40.8325
3227693,0.3101,0.243,0.239,26.001,-21.6675,-36.377
3227714,0.3364,0.3389,0.2042,32.5928,-27.8931,-33.2031
3227734,0.3726,0.3041,0.1637,45.105,-29.9683,-19.4092
3227754,0.2661,0.2793,0.1486,53.1006,-20.752,-10.376
3227774,0.0579,0.2272,0.2878,71.5942,-6.1035,-1.9531
3227794,0.179,0.0648,0.3483,89.1724,7.019,8.7891
3227814,0.8438,-0.5015,0.0836,-0.5493,58.7769,17.334
3227836,1.683,-0.6528,1.1871,-45.4712,154.1748,3.418
3227856,1.3292,-0.5477,0.6895,51.0254,6.5918,33.5083
3227876,1.2759,-0.4141,0.6294,92.7124,-65.1245,22.644
3227896,1.1909,-0.334,0.5588,102.7832,-82.9468,20.0195
3227916,1.3513,-0.3293,0.6603,90.5762,-19.043,27.9541
3227936,1.4404,-0.3699,0.6604,72.5708,-19.6533,40.4663
3227959,1.2137,-0.4349,0.5854,57.6172,-18.9819,50.5981
3227979,1.0599,-0.3966,0.528,57.1899,-17.5781,53.9551
3228001,0.8064,-0.2893,0.4603,54.4434,-9.2773,57.8003
3228021,0.7025,-0.2933,0.4031,47.8516,-7.019,58.1055
3228041,0.5316,-0.2881,0.3439,46.5088,-7.5073,53.0396
3228061,0.3833,-0.333,0.2948,45.4102,-15.0146,48.584
3228081,0.2756,-0.3826,0.3009,41.748,-18.3716,45.3491
3228101,0.2034,-0.3995,0.2524,33.6914,-20.6299,39.7339
3228121,0.165,-0.3928,0.2211,20.1416,-21.9116,29.9072
3228141,0.1467,-0.2722,0.2565,-2.0142,-9.6436,19.043
3228161,0.0815,-0.2064,0.2638,-9.3994,-0.7324,12.8784
3228181,0.0476,-0.1694,0.2709,-28.6865,14.5264,5.9204
3228201,0.5474,-0.1772,0.2716,-75.3784,39.1235,4.8218
3228222,2.0631,0.1938,0.9526,-222.0459,82.0312,-29.9072
3228242,1.0876,0.2065,0.7487,-56.4575,61.3403,-16.7847
3228262,1.2717,0.1022,0.7584,-54.4434,-13.2446,6.4697
3228283,1.0532,0.1426,0.5645,-77.9419,25.5127,-6.8359
3228303,1.5034,-0.0656,0.8107,-72.6929,-31.9214,-25.6348
3228323,1.4805,0.043,0.6243,-64.1479,-25.5127,-40.4053
3228344,1.4391,0.1212,0.6521,-51.6968,-24.5361,-44.5557
3228364,1.3826,0.1498,0.5623,-38.3911,-18.3716,-42.6025
3228384,1.1604,0.118,0.4319,-31.9824,-8.0566,-39.917
3228407,0.9772,0.072,0.3817,-28.9917,0.6714,-39.978
3228427,0.7316,0.0728,0.3417,-25.4517,1.5869,-40.4053
3228447,0.6399,0.1134,0.3911,-15.9302,1.0986,-41.5649
3228467,0.5214,0.1592,0.3713,4.6997,-15.8691,-37.9639
3228487,0.3878,0.1825,0.3457,14.3433,-27.5269,-29.3579
3228507,0.3069,0.1932,0.2859,22.4609,-25.8179,-24.9634
3228527,0.4235,0.2069,0.1637,26.5503,-13.2446,-17.5781
3228548,0.5016,0.1937,0.1595,24.8413,-6.1035,-16.4185
3228568,0.3239,0.2092,0.3188,36.6211,-1.2817,-8.2397
3228588,0.2288,0.1591,0.3951,54.7485,-0.2441,4.3335
3228608,0.5144,-0.0829,0.3455,32.1655,15.4419,11.5356
3228628,1.5157,-0.4401,0.8682,-1.4038,58.2886,2.8076
3228648,1.1503,-0.535,0.8142,43.8843,21.3623,10.8643
3228668,1.2714,-0.4182,0.5887,56.6406,-15.0757,-0.9766
3228688,1.3777,-0.3914,0.6031,66.4673,-54.8096,9.7656
3228708,1.2363,-0.3629,0.6288,75.1953,-51.5137,22.2168
3228732,1.1841,-0.3699,0.6818,67.688,-32.1045,35.5835
3228753,1.1091,-0.3406,0.6208,54.0161,-21.2402,47.6685
3228773,0.9865,-0.3452,0.5342,45.7764,-8.4229,53.5889
3228794,0.8063,-0.326,0.451,45.5933,-1.1597,55.603
3228814,0.7451,-0.2764,0.4242,42.6636,1.5259,55.7251
3228834,0.631,-0.254,0.4027,37.2925,5.5542,54.8706
3228854,0.473,-0.2142,0.3708,31.8604,8.667,52.002
3228874,0.3729,-0.2288,0.3881,27.3438,4.7607,49.0112
3228895,0.2831,-0.3682,0.3713,14.2822,4.2114,43.7622
3228915,0.3097,-0.4365,0.3486,-6.0425,1.2817,29.6021
3228935,0.2765,-0.3925,0.3441,-19.3481,2.2583,17.9443
3228955,0.2233,-0.2395,0.3005,-30.0293,6.0425,8.1787
3228975,0.204,-0.1876,0.3932,-41.1377,19.2261,1.4038
3228995,0.655,-0.1986,0.3845,-73.9136,41.8091,-5.9814
3229015,1.6375,0.1934,0.6208,-96.0693,79.2847,-25.2686
3229035,1.4078,0.4928,0.7963,-71.5332,79.7729,-32.8979
3229055,1.1876,0.3132,0.6924,-56.8237,20.752,4.1504
3229075,1.0179,0.0826,0.5563,-56.7627,13.3667,10.0708
3229097,1.6232,0.087,0.5648,-70.2515,24.4751,-2.4414
3229117,1.6023,0.0806,0.4728,-60.73,-24.231,-26.5503
3229137,1.4546,0.0884,0.478,-51.3916,-23.6816,-26.6113
3229157,1.411,0.1204,0.421,-44.6167,-21.2402,-29.9072
3229177,1.2939,0.1493,0.3723,-35.8276,-17.8833,-33.6914
3229197,0.9929,0.1552,0.3585,-32.7148,-8.3008,-33.7524
3229217,0.8499,0.1498,0.342,-25.8179,-5.127,-34.3628
3229237,0.7319,0.1421,0.3125,-20.874,-5.0659,-33.8745
3229258,0.6721,0.1821,0.2842,-12.2681,-9.0942,-33.6304
3229281,0.4708,0.2451,0.246,-0.4883,-22.8882,-29.4189
3229301,0.3239,0.2836,0.2367,17.2729,-26.5503,-21.3013
3229321,0.3514,0.2944,0.1952,30.4565,-26.9775,-13.0615
3229341,0.4495,0.2827,0.1986,34.5459,-24.1699,-10.498
3229361,0.3237,0.1776,0.2675,37.1094,-18.4937,-1.0986
3229381,0.1725,0.0963,0.2496,47.0581,-13.4888,5.4321
3229401,0.2522,-0.0486,0.4424,48.584,15.564,17.7002
3229421,1.6251,-0.5408,0.5618,3.418,36.7432,15.3198
3229441,1.639,-0.6299,0.7372,-12.0239,72.1436,3.418
3229461,0.9158,-0.3463,0.6929,21.7285,-5.0049,30.0293
3229483,1.2167,-0.2262,0.5718,31.7383,-13.3667,28.3813
3229503,1.2023,-0.2206,0.6626,45.105,-52.3682,4.0283
3229524,1.2687,-0.1552,0.6849,41.5039,-36.8042,3.54
3229544,1.2593,-0.1201,0.6666,42.6025,-33.3862,13.6719
3229565,1.1716,-0.1298,0.5967,36.0718,-17.2729,18.3105
3229585,1.0719,-0.1198,0.5507,31.4941,-0.7935,23.6816
3229605,0.8999,-0.0472,0.4869,31.0669,4.8828,29.6631
3229625,0.7982,-0.0447,0.4611,29.6631,5.9204,33.2642
3229645,0.7107,-0.0782,0.4501,25.6348,-0.3052,36.1938
3229665,0.5862,-0.1143,0.4679,19.4702,-3.418,36.438
3229685,0.4083,-0.1945,0.4552,16.6016,-12.2681,31.25
3229705,0.2987,-0.3752,0.3698,13.7939,-11.6577,23.7427
3229727,0.2949,-0.439,0.2856,1.3428,0.2441,7.6294
3229747,0.2386,-0.3096,0.3381,-16.5405,7.6904,-0.4272
3229767,0.1611,-0.24,0.2845,-33.9355,18.0664,-8.8501
3229787,0.1104,-0.1688,0.3512,-43.2739,30.7617,-17.5781
3229810,0.6277,-0.072,0.282,-72.998,44.6167,-25.1465
3229830,1.7328,0.4222,0.7303,-113.4033,88.0737,-40.8936
3229850,1.2065,0.348,0.942,-67.1387,65.4297,-23.5596
3229870,0.9718,0.1792,0.6029,-32.7759,16.4185,-2.2583
3229890,1.1865,0.0946,0.566,-51.2085,7.2021,-16.1133
3229910,1.3605,0.0256,0.599,-49.7437,-0.3052,-17.5171
3229931,1.4496,-0.0278,0.5096,-34.6069,-22.583,-29.9683
3229951,1.4501,-0.0125,0.4702,-31.0669,-12.9395,-40.1001
3229971,1.3878,0.0804,0.4331,-29.9072,-10.6201,-40.3442
3229991,1.2368,0.1315,0.3519,-25.2075,0.7935,-36.8652
3230011,1.0658,0.1377,0.3413,-24.292,5.7983,-33.5083
3230031,0.8497,0.0972,0.2778,-17.2729,3.7231,-31.1279
3230053,0.7427,0.1288,0.2625,-5.7373,-5.9204,-28.0762
3230073,0.6067,0.2135,0.2356,1.8921,-11.6577,-22.3999
3230093,0.4636,0.2454,0.2341,11.4746,-15.9912,-15.0757
3230113,0.3586,0.2847,0.2472,32.2266,-19.5923,-4.4556
3230133,0.3408,0.3119,0.2626,45.3491,-18.4937,1.2207
3230157,0.3098,0.3184,0.288,63.2324,-17.0898,15.4419
3230177,0.2156,0.1219,0.5129,77.9419,-5.0659,33.3252
3230197,0.7043,-0.2239,0.3472,68.3594,13.2446,40.2222
3230217,1.679,-0.5269,0.7345,25.7568,30.0903,36.1328
3230237,1.4042,-0.687,0.5179,49.5605,36.9873,29.48
3230257,1.205,-0.3894,0.65,66.4673,5.249,47.9126
3230277,1.0742,-0.3546,0.524,63.1104,-4.7607,48.2788
3230297,1.2628,-0.4153,0.6832,62.8662,-18.8599,31.189
3230317,1.3663,-0.3365,0.6322,66.4673,-44.2505,32.5317
3230337,1.3077,-0.2411,0.5398,59.2041,-37.5977,33.3252
3230357,1.0474,-0.2393,0.4525,52.3071,-21.6064,40.0391
3230377,0.8074,-0.1749,0.3851,43.0908,-5.4321,44.9829
3230397,0.7593,-0.163,0.3777,35.2173,-2.6245,44.8608
3230419,0.646,-0.1294,0.3788,30.9448,-0.061,41.9922
3230439,0.557,-0.1283,0.4218,32.8979,-8.667,36.1938
3230459,0.4283,-0.1984,0.3976,36.6211,-14.2212,33.9355
3230479,0.3529,-0.3127,0.3044,37.2925,-8.8501,30.6396
3230502,0.4467,-0.478,0.2996,7.9956,-0.5493,20.1416
3230522,0.6267,-0.546,0.3607,-27.771,6.5918,6.2866
3230542,0.7177,-0.4459,0.2905,-34.9121,3.479,-1.8311
3230562,0.5046,-0.3556,0.2982,-52.5513,3.0518,-6.2256
3230582,0.2061,-0.2716,0.2579,-65.8569,8.7891,-10.1929
3230604,0.2588,-0.245,0.2673,-79.5288,13.7329,-11.2915
3230624,0.8243,-0.1844,0.1991,-117.4316,31.9824,-28.6255
3230644,1.286,0.1166,0.3818,-135.9863,68.4204,-50.6592
3230664,1.2062,0.3225,0.5967,-109.4971,36.8652,-38.4521
3230684,1.1074,0.1981,0.5054,-101.3794,-28.8696,-21.8506
3230704,1.3002,0.1904,0.4325,-111.5723,-0.061,-26.5503
3230724,1.6097,0.1598,0.5013,-114.7461,-4.3945,-31.6772
3230744,1.5397,0.0837,0.4423,-107.9102,-29.8462,-43.457
3230764,1.505,0.0941,0.4054,-102.6001,-18.3105,-55.481
3230784,1.4738,0.2157,0.3501,-99.6094,-9.5825,-59.6313
3230804,1.3313,0.2466,0.3016,-90.6982,-12.9395,-62.0728
3230824,1.0819,0.2062,0.248,-72.6929,-16.9067,-62.561
3230844,0.9792,0.1982,0.2483,-57.9834,-17.2119,-61.0962
3230865,0.7571,0.2899,0.2888,-36.377,-22.1558,-56.4575
3230885,0.5607,0.3774,0.2994,-20.9961,-29.48,-45.8984
3230905,0.4404,0.4224,0.2773,-1.2817,-33.1421,-31.6162
3230925,0.34,0.3605,0.2544,4.8828,-34.4849,-25.5737
3230945,0.2412,0.3013,0.2461,14.8315,-27.9541,-18.4937
3230965,0.1963,0.2715,0.233,30.0293,-20.0195,-12.085
3230985,0.1177,0.1669,0.37,47.3633,-11.1694,-5.188
3231005,0.993,-0.1454,0.1947,55.542,27.1606,2.5024
3231025,1.7137,-0.2931,1.0848,-25.4517,85.022,-5.188
3231045,1.1183,-0.4381,0.7788,-4.2114,51.5747,10.498
3231068,1.1766,-0.2063,0.6279,42.8467,8.728,18.3716
3231088,1.115,-0.2383,0.7131,57.0068,-28.8086,18.1274
3231108,1.1512,-0.3033,0.6616,59.5093,-17.5171,12.3901
3231131,1.2986,-0.2611,0.6945,50.7202,-12.085,22.3389
3231151,1.2129,-0.2781,0.5713,45.3491,-10.0098,28.6255
3231173,1.0905,-0.2498,0.498,31.4941,5.6152,32.1045
3231193,0.913,-0.1492,0.5015,26.7944,12.9395,36.1328
3231214,0.8202,-0.1758,0.4279,17.5781,21.3013,39.3066
3231234,0.6658,-0.2373,0.418,13.916,20.5078,39.0625
3231254,0.5564,-0.3033,0.4447,0.7324,22.3389,31.0669
3231274,0.4244,-0.3674,0.3906,-13.1836,13.3057,25.5127
3231294,0.3304,-0.3726,0.2791,-9.5215,1.0986,17.8833
3231314,0.3286,-0.361,0.2349,-13.2446,-6.4697,8.5449
3231338,0.2145,-0.2632,0.3492,-16.6626,-20.3247,-4.9438
3231358,0.0973,-0.1945,0.2958,-13.7939,-16.4795,-17.5781
3231378,0.1536,-0.1913,0.1025,-42.9077,13.855,-30.0293
3231399,0.6541,-0.2369,-0.1088,-182.0068,70.3125,-42.1753
3231419,2.4009,0.6974,1.2577,-132.2632,153.9307,-74.9512
3231439,1.262,0.4189,0.4976,-91.6748,64.1479,-26.9165
3231462,1.12,0.2173,0.434,-74.585,-22.583,-18.4326
3231482,1.329,0.3396,0.4321,-104.0039,65.7959,-24.231
3231502,1.7266,0.2144,0.4248,-84.7778,-32.1655,-44.8608
3231522,1.5549,0.1732,0.4561,-79.1626,-29.7852,-51.4526
3231542,1.4337,0.1279,0.4283,-61.5845,-25.5737,-57.312
3231564,1.1953,0.1807,0.3715,-54.7485,-23.0103,-56.5796
3231584,1.0361,0.1852,0.3468,-53.2837,-3.2349,-47.3022
3231604,0.8627,0.157,0.2521,-51.5747,6.2866,-39.3677
3231624,0.6591,0.1641,0.248,-42.0532,5.127,-35.6445
3231644,0.5685,0.1906,0.197,-34.668,2.5635,-31.7993
3231664,0.4047,0.2295,0.2335,-23.6206,-7.3853,-27.8931
3231684,0.3518,0.3511,0.1506,-14.1602,-12.5122,-27.3438
3231704,0.4004,0.3461,0.031,-6.5308,-17.5171,-24.292
3231724,0.3989,0.3472,0.053,8.4839,-18.0664,-19.8364
3231744,0.2739,0.3018,0.292,41.9312,-21.9727,-15.5029
3231765,0.1703,0.2161,0.2988,64.8193,-15.2588,-11.9019
3231785,0.4573,-0.2288,0.0232,72.5708,4.2725,-3.3569
3231805,2.2281,-0.5314,1.9312,-53.3447,53.1616,-17.0288
3231825,1.2917,-0.3535,0.7949,-5.3101,136.5356,-40.1611
3231845,1.2495,-0.3325,0.693,64.5142,-59.021,14.5264
3231869,1.2429,-0.2001,0.6993,84.5947,-62.0728,19.2871
3231889,1.3215,-0.3464,0.7013,60.3027,-34.668,11.5356
3231909,1.328,-0.3567,0.6948,43.8232,-23.9258,20.5078
3231929,1.2181,-0.3545,0.615,28.4424,-15.1978,27.4048
3231949,0.9843,-0.2891,0.4673,13.0005,-1.4038,31.7383
3231969,0.8381,-0.2144,0.4016,8.1787,7.5684,34.5459
3231989,0.7731,-0.1738,0.3748,8.9722,13.3667,36.1328
3232009,0.6937,-0.1708,0.3839,10.8032,12.3901,35.7666
3232031,0.5222,-0.1595,0.3629,11.4136,8.4229,35.0342
3232052,0.3712,-0.1967,0.3645,11.2915,2.0142,31.9824
3232072,0.4032,-0.2544,0.3165,1.4038,-4.6387,23.7427
3232092,0.4207,-0.3136,0.3022,-7.2632,-8.4229,20.6299
3232112,0.3441,-0.2124,0.3678,-28.5034,-15.0146,10.9253
3232132,0.2058,-0.1318,0.4,-25.3906,-14.5874,1.8921
3232152,0.2676,-0.0834,0.2953,-14.7705,-3.7842,-6.897
3232172,0.6154,-0.1356,0.0073,-58.2886,33.1421,-19.8364
3232195,1.6779,0.2683,1.0212,-146.5454,124.2676,-43.7622
3232215,1.4586,0.4707,0.5115,-53.5278,82.7637,-15.564
3232235,0.9733,0.0868,0.4364,-60.73,-9.3384,13.7939
3232255,1.066,0.1041,0.4647,-75.5615,18.1274,4.3335
3232275,1.5681,0.0673,0.5209,-78.0029,-5.127,-12.8174
3232295,1.4628,0.0936,0.4812,-69.6411,-33.1421,-32.3486
3232319,1.3844,0.1315,0.4119,-57.5562,-33.5693,-45.2881
3232339,1.2521,0.1967,0.3995,-49.1943,-25.7568,-43.457
3232360,1.0858,0.1582,0.3319,-49.5605,-18.1885,-39.4287
3232380,0.8845,0.1182,0.3109,-49.4385,-6.7139,-36.0718
3232424,0.6707,0.186,0.2716,-38.3911,-4.5776,-31.7383
3232453,0.5634,0.2795,0.3226,-22.0947,-10.9253,-26.7334
3232474,0.502,0.2788,0.2821,-10.498,-14.3433,-21.5454
3232494,0.5203,0.2561,0.2234,-2.4414,-6.7749,-16.6626
3232514,0.5344,0.2611,0.2799,1.2207,-2.6245,-13.4277
3232534,0.3435,0.2209,0.3818,14.3433,-0.3662,-7.1411
3232554,0.3171,0.05,0.3551,27.4048,3.2959,-0.6714
3232574,0.864,-0.2937,0.1917,-7.9346,29.9683,-1.5259
3232594,1.4213,-0.3846,1.2279,-29.1138,59.3872,-11.6577
3232614,0.917,-0.3164,0.7155,0.061,5.0049,8.3618
3232634,0.9424,-0.204,0.6497,17.9443,-18.1885,4.1504
3232655,1.1696,-0.1746,0.5571,34.79,-44.6167,-10.5591
3232675,1.1538,-0.2416,0.6295,22.9492,-29.6021,-9.2163
3232695,1.2643,-0.2183,0.624,17.5781,-21.3623,-3.3569
3232715,1.2356,-0.1591,0.5448,11.4136,-9.5215,3.1128
3232735,1.1403,-0.1001,0.4791,11.2305,-5.7983,8.1177
3232755,0.9443,-0.0576,0.4131,10.376,4.7607,13.2446
3232775,0.8103,-0.0485,0.3613,11.5356,8.3618,19.8975
3232795,0.7083,-0.0522,0.351,11.2915,11.2305,26.3062
3232815,0.6392,-0.1364,0.3564,7.6294,12.2681,26.5503
3232835,0.6356,-0.1876,0.3395,-0.6714,10.7422,26.4282
3232855,0.5808,-0.2085,0.3457,-12.085,7.2632,21.1792
3232875,0.5759,-0.2906,0.3262,-25.8789,7.9956,12.6953
3232895,0.6882,-0.3857,0.3488,-33.3862,3.6621,2.6855
3232917,0.6895,-0.2599,0.3723,-35.0952,3.6011,-5.188
3232937,0.5209,-0.1492,0.3787,-29.9683,1.0376,-2.5635
3232957,0.3461,-0.1405,0.3428,-29.2969,3.9673,-3.418
3232977,0.5404,-0.1246,0.225,-43.5791,19.5312,-11.9629
3232997,1.1226,0.1702,0.4823,-55.9692,50.293,-16.9678
3233017,1.2476,0.3668,0.5916,-71.106,67.3828,-3.3569
3233037,1.1932,0.3184,0.5837,-77.6367,27.6489,11.4746
3233057,1.0819,0.025,0.4871,-84.5337,10.0098,14.0381
3233077,1.2858,0.0381,0.4437,-70.8008,-7.5684,-13.7939
3233097,1.5485,0.2235,0.4531,-62.3779,-18.0054,-30.3345
3233117,1.5052,0.2427,0.4849,-48.584,-42.2363,-31.9214
3233139,1.252,0.16,0.4476,-43.5791,-46.9971,-30.9448
3233159,1.0824,0.1656,0.4292,-39.917,-40.7715,-31.1279
3233179,0.8303,0.1603,0.3588,-34.1187,-27.9541,-29.7241
3233200,0.7406,0.1179,0.3492,-31.6162,-20.0195,-28.8086
3233220,0.6819,0.1313,0.3407,-24.353,-10.0098,-31.8604
3233240,0.6683,0.2054,0.3992,-15.3809,-8.1787,-32.7759
3233262,0.6552,0.1884,0.3494,-6.8359,-28.3813,-26.2451
3233306,0.4666,0.256,0.3374,24.7803,-16.2354,-14.2212
3233326,0.4719,0.2704,0.2255,32.1045,-18.1274,-8.9111
3233346,0.3231,0.2068,0.293,31.6772,-13.1836,3.0518
3233366,0.2089,0.1263,0.3522,44.3726,-8.728,10.9863
3233386,0.4075,-0.0452,0.396,56.3354,-0.4272,12.6343
3233406,1.3666,-0.285,1.1528,-8.2397,54.7485,5.6763
3233426,1.1267,-0.3448,0.745,25.6348,46.3867,8.8501
3233446,0.9271,-0.3456,0.7074,56.4575,-20.2637,19.7754
3233466,1.0787,-0.2767,0.6068,72.8149,-45.2881,17.2729
3233486,1.1353,-0.3503,0.5833,59.3872,3.8452,10.0708
3233506,1.3243,-0.3204,0.6266,58.5938,5.7983,12.6953
3233526,1.3623,-0.2152,0.5936,63.3545,-9.8877,22.3389
3233546,1.2545,-0.25,0.5109,54.4434,-5.9814,32.0435
3233566,1.1431,-0.277,0.4679,50.6592,-3.3569,35.4614
3233586,1.0018,-0.2601,0.4209,49.0112,2.6855,39.7949
3233606,0.7827,-0.1746,0.3822,45.7153,11.1694,47.5464
3233626,0.6931,-0.176,0.3628,47.6685,11.2915,53.6499
3233646,0.6986,-0.2227,0.3439,44.5557,9.7656,57.4341
3233666,0.6692,-0.3274,0.3484,27.4048,7.8735,54.8706
3233686,0.5796,-0.3514,0.3586,20.2026,6.5308,47.5464
3233706,0.5636,-0.4211,0.3126,13.1836,1.77,33.9355
3233726,0.5552,-0.4199,0.3157,9.3994,-5.0049,25.7568
3233746,0.465,-0.3599,0.3289,11.1084,-6.958,15.686
3233766,0.2638,-0.2096,0.363,20.3857,-4.3945,14.5264
3233786,0.251,-0.0818,0.2469,3.0518,6.3477,12.146
3233806,0.3865,-0.0164,0.1682,-24.292,16.6626,8.9722
3233829,0.6238,-0.0687,-0.0404,-55.603,21.9116,4.8828
3233849,1.3623,0.2633,1.322,-185.4248,118.5913,-23.2544
3233869,1.4597,0.259,0.6641,-81.1768,49.1943,1.9531
3233889,1.1301,-0.1677,0.5598,-80.6274,-8.9722,19.2261
3233909,1.3744,-0.1224,0.5052,-85.3882,4.8828,0.7935
3233929,1.538,0.1423,0.521,-58.5327,-20.6299,-27.3438
3233949,1.5441,0.2841,0.5239,-47.8516,-28.5034,-29.8462
3233969,1.4271,0.1642,0.5182,-42.7246,-25.5127,-29.541
3233989,1.3094,0.0964,0.4757,-42.5415,-18.6157,-29.9072
3234009,1.0305,-0.0092,0.3766,-42.4194,-13.4888,-28.5034
3234029,0.8416,-0.0083,0.3344,-41.0156,-4.2725,-27.2217
3234049,0.7234,0.0452,0.3567,-20.874,-4.2114,-26.4282
3234069,0.6919,0.1461,0.3875,2.3193,-10.0098,-24.6582
3234089,0.6337,0.2424,0.3862,18.2495,-21.0571,-17.7002
3234109,0.5212,0.24,0.3802,23.9258,-33.8135,-7.8125
3234132,0.4752,0.2717,0.1316,38.6963,-16.6626,-11.9629
3234152,0.4139,0.3322,0.1055,48.645,-8.4229,-11.4136
3234172,0.3098,0.3367,0.113,66.1621,-12.0239,-1.709
3234192,0.2002,0.2291,0.2156,83.8013,-17.7002,5.9814
3234212,0.2367,0.0663,0.2487,107.9712,-15.0757,14.7705
3234232,0.756,-0.6974,-0.1847,88.1958,-5.127,28.9307
3234252,1.8879,-0.1121,2.6028,-81.2988,106.2622,-26.9165
3234275,0.9559,-0.3223,0.5859,61.2793,3.9673,30.9448
3234295,1.1626,-0.3877,0.5154,91.4307,-73.6694,26.5503
3234315,1.2639,-0.4359,0.4978,93.8721,-57.373,19.5312
3234335,1.3651,-0.3834,0.6547,86.1206,-19.8364,29.9683
3234355,1.3202,-0.4319,0.6198,71.9604,-14.6484,45.8984
3234375,1.2343,-0.4131,0.5785,63.9038,-12.6343,48.7061
3234399,0.9875,-0.3046,0.4515,61.0352,-4.3335,54.8706
3234419,0.8468,-0.3,0.4028,56.5186,1.1597,58.0444
3234439,0.7516,-0.3285,0.3773,52.2461,5.3711,59.9976
3234459,0.7017,-0.3306,0.3567,47.1802,2.6245,58.3496
3234479,0.5638,-0.3313,0.3634,39.1235,-0.1221,51.3306
3234499,0.4253,-0.3318,0.358,38.5742,-2.6855,45.7764
3234521,0.4189,-0.4161,0.2738,33.6914,-6.7139,39.3066
3234541,0.4321,-0.4113,0.2611,22.7051,-9.9487,17.1509
3234561,0.2971,-0.2114,0.3203,11.7798,-4.7607,23.2544
3234581,0.1886,-0.1525,0.3201,12.207,2.8687,19.104
3234601,0.1469,-0.1659,0.3544,-12.6953,9.7656,14.0991
3234621,0.5011,-0.2583,0.2493,-48.8281,22.9492,9.3384
3234641,1.4421,-0.1202,0.5831,-123.23,51.4526,-4.8828
3234661,1.4467,0.535,0.8367,-59.3872,81.4819,-24.4141
3234681,1.041,0.1472,0.6727,-36.9263,35.0952,9.7046
3234702,1.0084,-0.0844,0.5635,-41.9922,-18.8599,19.8975
3234722,1.2794,-0.0718,0.7251,-48.8892,-0.1831,2.5635
3234743,1.5081,0.0454,0.6464,-28.7476,-36.6211,-17.9443
3234763,1.4458,0.1049,0.5725,-14.2822,-30.6396,-19.6533
3234783,1.4503,-0.0065,0.5232,-16.5405,-24.5361,-19.043
3234803,1.308,-0.1178,0.4252,-26.6113,-15.1367,-23.2544
3234823,1.0762,-0.0665,0.4174,-28.0762,-7.8735,-26.123
3234843,0.8727,-0.0427,0.3965,-18.1274,-9.0332,-23.8037
3234863,0.7092,0.0471,0.3788,-6.3477,-9.0332,-23.3765
3234884,0.6666,0.0997,0.3927,11.3525,-15.9912,-19.8364
3234904,0.6229,0.1531,0.3685,18.3105,-26.6724,-13.7329
3234925,0.4191,0.1799,0.3235,27.6489,-44.7388,-9.2163
3234945,0.3744,0.2235,0.2723,44.1284,-29.6631,-7.019
3234965,0.4259,0.3164,0.1964,51.1475,-24.5361,-2.8076
3234985,0.4048,0.3104,0.1823,62.9883,-22.1558,2.7466
3235005,0.2101,0.1868,0.1887,72.4487,-13.9771,9.3384
3235026,0.1993,0.0499,0.3413,85.7544,4.2725,15.3198
3235046,0.9572,-0.7094,0.3367,56.8848,27.6489,18.3716
3235066,1.7161,-0.5968,1.1514,-5.9814,92.9565,-11.6577
3235088,1.1936,-0.4835,0.762,52.2461,30.5176,24.353
3235108,1.1941,-0.337,0.5532,87.8906,-76.5381,27.8931
3235129,1.1744,-0.4624,0.6602,85.083,-44.7998,22.0337
3235149,1.3036,-0.454,0.6967,82.0312,-25.5737,32.4707
3235169,1.3484,-0.4546,0.6973,65.7959,-17.5781,51.6357
3235189,1.1177,-0.4464,0.6123,56.0303,-11.3525,55.0537
3235210,0.9139,-0.3981,0.5193,47.1191,4.2114,56.5796
3235230,0.7604,-0.2776,0.4907,43.7012,12.146,57.8613
3235250,0.6938,-0.3102,0.4696,32.4097,9.0942,55.8472
3235270,0.6204,-0.3978,0.4652,27.4048,0.6714,51.7578
3235290,0.4563,-0.4004,0.4401,24.231,-6.2866,43.0298
3235310,0.2798,-0.3854,0.436,22.0947,-7.2021,38.4521
3235330,0.2112,-0.4161,0.3499,9.8267,-8.4839,33.3862
3235350,0.1986,-0.3977,0.3477,0.1831,-8.4839,25.5737
3235370,0.1343,-0.2963,0.3127,-12.3901,-2.1973,14.5264
3235390,0.0358,-0.2202,0.3051,-23.6816,4.2725,8.2397
3235410,0.1449,-0.1116,0.3993,-41.8701,22.1558,-0.8545
3235430,1.2368,-0.1594,0.0426,-62.1948,42.6636,-3.9673
3235450,2.1771,0.5902,1.2228,-102.8442,87.0972,-19.6533
3235470,1.3379,0.3585,0.6116,-24.5361,32.7148,22.4609
3235490,1.1628,0.1306,0.525,-54.8096,-6.2866,19.165
3235510,1.0308,0.0571,0.5085,-71.6553,36.5601,9.7656
3235530,1.4567,-0.0369,0.5879,-57.5562,-20.3247,-9.9487
3235550,1.4219,0.0531,0.5383,-35.7056,-25.6958,-25.5737
3235572,1.3721,0.0585,0.4749,-25.5737,-21.1792,-35.8887
3235592,1.142,0.1417,0.4122,-19.7144,-20.813,-38.6353
3235612,1.0352,0.1528,0.3864,-17.6392,-10.2539,-39.1235
3235632,0.8346,0.1385,0.4106,-10.6812,-1.0986,-38.3301
3235652,0.7587,0.1635,0.392,4.0283,-6.8359,-36.6211
3235672,0.5204,0.2537,0.3798,16.6016,-23.0103,-34.1187
3235692,0.3833,0.2632,0.2332,23.6816,-35.4614,-29.6021
3235715,0.3979,0.3801,0.2396,39.7949,-19.4702,-28.5034
3235735,0.416,0.3676,0.2626,57.1899,-17.7612,-18.3105
3235755,0.2582,0.2689,0.2585,67.688,-19.5312,-7.0801
3235775,0.1337,0.1976,0.3021,84.0454,-17.2729,1.5869
3235795,0.7646,-0.369,0.0028,92.9565,6.5918,15.5029
3235815,1.4258,-0.3688,0.9635,0.3052,20.2637,20.5688
3235836,1.1884,-0.7001,0.7062,18.7378,43.7012,20.9961
3235856,1.1664,-0.4989,0.625,63.2935,2.1973,31.7993
3235876,1.1927,-0.5353,0.5896,73.4253,-31.4941,22.4609
3235897,1.2982,-0.4849,0.6702,74.8901,-39.1846,19.7754
3235917,1.4208,-0.394,0.6683,68.7256,-31.189,34.1797
3235940,1.3328,-0.489,0.6543,59.4482,-20.874,40.1001
3235960,1.1912,-0.4728,0.6025,59.2041,-17.1509,48.3398
3235980,0.9822,-0.3898,0.495,54.5654,0.9766,57.251
3236000,0.8838,-0.3804,0.4708,51.8799,7.6904,60.791
3236020,0.8367,-0.4335,0.5133,39.4897,6.7139,60.73
3236043,0.5858,-0.4813,0.5128,32.959,2.0752,56.6406
3236063,0.4136,-0.5261,0.4685,19.9585,-2.2583,48.3398
3236083,0.3662,-0.5245,0.3463,9.7656,-1.77,39.7339
3236103,0.3499,-0.4358,0.3456,3.2959,-3.418,30.8228
3236123,0.1099,-0.2123,0.3726,2.1362,-13.0615,20.813
3236143,0.0138,-0.125,0.3177,-3.8452,-6.0425,15.0757
3236163,0.0576,-0.0863,0.2408,-30.0903,11.9019,4.7607
3236183,0.3484,-0.2224,0.1838,-58.5938,29.0527,-2.2583
3236204,1.0225,-0.3361,-0.077,-139.8315,70.6787,-20.0195
3236224,1.8712,0.7218,0.9592,-86.5479,139.9536,-38.7573
3236244,0.8361,0.1624,0.7147,-46.6919,17.0898,32.1045
3236264,1.2521,0.1361,0.6338,-61.8896,-26.001,16.4795
3236285,1.2509,0.2257,0.66,-74.646,24.7192,6.0425
3236305,1.4719,0.109,0.6893,-51.1475,-46.9971,-21.5454
3236325,1.4714,0.0623,0.608,-37.3535,-49.5605,-24.353
3236345,1.5386,-0.0111,0.5839,-34.3018,-33.5693,-29.2358
3236365,1.3445,0.1068,0.532,-33.3862,-33.1421,-33.3862
3236385,1.1547,0.0662,0.5319,-34.9121,-19.2261,-35.6445
3236405,0.9703,0.0997,0.4844,-28.3813,-19.104,-39.2456
3236425,0.8193,0.1667,0.4929,-6.4697,-21.8506,-41.1377
3236445,0.6759,0.2433,0.465,11.9019,-32.959,-38.3911
3236465,0.5245,0.3079,0.3816,23.2544,-42.6025,-33.0811
3236485,0.4146,0.3846,0.3054,49.4995,-39.4897,-31.7383
3236505,0.3624,0.4349,0.3138,54.3213,-39.2456,-29.6021
3236525,0.2725,0.2906,0.2316,63.1714,-35.4004,-17.334
3236546,0.204,0.1053,0.1884,68.6035,-29.1138,-9.2773
3236566,0.1077,-0.0356,0.2354,86.2427,-6.7139,1.8311
3236586,0.1643,-0.1666,0.3462,67.5049,33.8745,13.4888
3236629,1.0312,-0.3628,1.0068,-15.8691,98.3276,12.9395
3236649,1.0135,-0.4373,0.5688,49.7437,16.8457,27.0996
3236669,1.3325,-0.4369,0.6533,76.1719,-13.5498,14.2212
3236691,1.1102,-0.3972,0.7151,84.0454,-31.7383,18.0054
3236711,1.27,-0.3541,0.7113,77.4536,-24.1089,27.8931
3236731,1.3593,-0.4188,0.6827,66.1011,-12.085,41.1987
3236751,1.2024,-0.387,0.6288,59.2651,-8.0566,50.2319
3236772,1.0243,-0.2968,0.5692,57.9224,-2.7466,54.3213
3236792,0.8121,-0.2488,0.4933,50.9644,7.8735,57.4951
3236812,0.7065,-0.2916,0.4084,36.9263,13.6108,55.7861
3236832,0.7208,-0.3629,0.4124,25.4517,7.8125,53.2837
3236852,0.5452,-0.3876,0.3615,15.7471,-0.5493,47.9126
3236872,0.4065,-0.3876,0.3289,7.9956,-3.418,41.8701
3236892,0.3889,-0.405,0.2825,-0.8545,-6.897,37.3535
3236912,0.3572,-0.4095,0.2513,-3.6011,-12.6953,31.0059
3236932,0.2697,-0.3153,0.2908,-15.8691,-9.5825,18.5547
3236953,0.1387,-0.1976,0.3016,-24.231,-4.5166,13.2446
3236974,0.2181,-0.1414,0.3719,-55.8472,12.0239,3.7231
3236994,0.7874,0.0603,0.4265,-72.0825,27.2827,-1.709
3237014,1.4978,0.1895,0.8083,-74.7681,41.4429,-3.9062
3237034,0.6433,0.0146,0.463,-56.8848,26.1841,9.3994
3237054,1.0309,0.0704,0.5939,-64.8804,12.207,5.0049
3237076,1.0771,0.2435,0.5763,-69.9463,5.7983,-7.5073
3237096,1.3237,0.1702,0.7338,-64.6973,-9.0332,-15.9302
3237116,1.4666,0.0837,0.6624,-55.8472,-39.4287,-36.1328
3237139,1.4617,-0.0275,0.6044,-48.9502,-34.6069,-37.4146
3237159,1.3605,0.0039,0.5563,-46.2036,-23.5596,-46.3257
3237179,1.1901,0.077,0.5017,-43.7012,-14.3433,-51.4526
3237199,0.9985,0.1334,0.4685,-35.8887,-11.5967,-51.1475
3237219,0.8163,0.1788,0.469,-19.8975,-12.0239,-49.8657
3237239,0.7281,0.2747,0.4728,-8.5449,-11.1694,-48.9502
3237259,0.5264,0.3176,0.3954,1.5259,-16.1743,-40.5273
3237283,0.3745,0.3203,0.3315,19.4092,-22.7051,-34.0576
3237303,0.4076,0.3483,0.2754,41.0156,-24.4751,-25.6348
3237323,0.3394,0.3186,0.2305,44.9829,-17.8223,-18.1885
3237344,0.3048,0.1384,0.1499,49.0723,-7.6294,-12.4512
3237364,0.1337,0.0725,0.2543,56.3354,7.3242,-2.6855
3237384,0.1362,-0.0007,0.3365,63.4155,26.7944,5.4932
3237404,0.959,-0.3154,0.5437,30.1514,55.9082,13.4888
3237424,1.4139,-0.4897,0.9978,-37.2314,76.7212,23.3154
3237447,0.934,-0.3912,0.7032,18.9819,55.9082,25.2075
3237470,1.3768,-0.3588,0.5735,61.5234,6.8359,16.0522
3237490,1.2711,-0.4545,0.5953,71.167,-22.522,13.0005
3237510,1.2942,-0.4067,0.6842,67.1387,-6.7749,20.0195
3237530,1.5023,-0.3306,0.6375,62.439,2.9297,32.4707
3237550,1.3386,-0.2836,0.5482,60.2417,4.3335,40.4053
3237570,1.1267,-0.2336,0.4917,55.542,17.9443,47.6074
3237590,0.8938,-0.2103,0.3992,47.9126,22.644,52.8564
3237610,0.7568,-0.2588,0.3472,25.7568,23.3765,55.7251
3237630,0.655,-0.3344,0.3361,20.2637,18.2495,53.1006
3237650,0.4702,-0.3527,0.3724,17.8833,6.2866,43.7622
3237670,0.4163,-0.415,0.3193,13.0005,0.1831,36.1328
3237690,0.3049,-0.3613,0.1794,12.9395,-11.2915,23.0713
3237710,0.2708,-0.2134,0.2183,5.9814,-11.3525,15.625
3237730,0.2921,-0.1256,0.2196,-0.4272,-5.188,6.4697
3237750,0.2711,-0.1519,0.3427,-18.6768,8.1787,0.1831
3237773,0.6591,-0.22,0.2744,-40.8325,17.0898,0.8545
3237793,1.3713,0.0386,0.4658,-69.8242,18.9209,-1.9531
3237813,0.9308,0.0579,0.5504,-63.7817,4.8828,2.8687
3237833,0.923,0.0975,0.5258,-70.0073,2.1362,6.958
3237853,1.0653,0.113,0.4136,-70.7397,-12.6953,-6.5918
3237873,1.0126,0.2091,0.3838,-70.8008,9.4604,-19.4702
3237895,1.4763,0.0219,0.6393,-77.9419,10.437,-19.8975
3237915,1.5028,0.0823,0.571,-62.0117,-47.4854,-39.856
3237935,1.4479,0.0424,0.5383,-51.2695,-35.7666,-42.3584
3237958,1.2643,0.0702,0.4934,-46.3867,-26.4282,-46.0205
3237978,1.0104,0.123,0.432,-38.3301,-13.5498,-49.4995
3237999,0.8909,0.1627,0.4197,-30.1514,-9.2163,-48.8892
3238019,0.8228,0.1477,0.4323,-10.5591,-12.6343,-43.6401
3238039,0.6274,0.2509,0.3802,-3.6621,-20.752,-34.8511
3238059,0.4526,0.2854,0.3508,4.6997,-23.0103,-29.9683
3238081,0.4172,0.3567,0.2954,22.8271,-21.7285,-25.3296
3238101,0.4294,0.3267,0.271,34.4238,-15.686,-15.8081
3238121,0.3585,0.1978,0.2559,37.7197,-8.3618,-11.1694
3238141,0.23,0.1748,0.2679,49.4995,-5.7373,-6.2866
3238161,0.2548,0.0496,0.4014,74.3408,7.2021,6.4087
3238181,0.786,-0.1263,0.5688,59.7534,28.7476,15.5029
3238201,1.301,-0.6324,0.7819,-10.9253,33.02,36.377
3238221,0.8615,-0.4727,0.6327,14.3433,18.5547,34.2407
3238241,1.0405,-0.4009,0.5374,40.2222,3.1738,30.2124
3238261,1.3418,-0.3616,0.5859,69.0308,-40.1611,15.2588
3238281,1.1815,-0.3914,0.6315,75.1953,-33.3252,14.8315
3238302,1.271,-0.3585,0.6815,61.7065,-14.5264,23.3765
3238322,1.3057,-0.2888,0.6705,52.124,-12.5122,43.9453
3238342,1.2009,-0.1879,0.6091,51.6968,-8.9111,39.7949
3238365,0.9565,-0.1515,0.5173,50.8423,3.479,49.0723
3238385,0.7938,-0.184,0.4413,46.6309,11.3525,57.6172
3238405,0.7322,-0.2576,0.4224,41.1377,13.6108,57.7393
3238425,0.6713,-0.3179,0.4083,32.4707,10.5591,52.9785
3238446,0.484,-0.3688,0.3661,18.3716,7.5073,43.8232
3238466,0.3987,-0.4285,0.2988,1.9531,5.3711,32.8979
3238486,0.4741,-0.4133,0.2239,-4.6997,-0.1221,24.292
3238506,0.4832,-0.3005,0.251,-7.2021,1.77,15.9912
3238526,0.3689,-0.2057,0.2787,-5.6763,4.4556,9.7046
3238549,0.2092,-0.2469,0.259,-19.104,3.8452,6.7749
3238569,0.2584,-0.2147,0.2451,-58.8379,12.3901,0.4272
3238589,0.8706,0.0002,0.2124,-84.8999,22.0337,-3.7231
3238609,1.5593,0.1625,0.8313,-98.8159,28.9917,-9.8877
3238629,1.1302,0.2517,0.7004,-52.8564,20.1416,-12.4512
3238649,0.9189,0.1672,0.6799,-62.5,-18.1885,0.2441
3238669,1.0955,0.1614,0.5518,-76.2329,4.1504,-11.2915
3238689,1.3673,0.0482,0.712,-84.1064,23.9258,-12.8784
3238709,1.4751,0.1011,0.5813,-64.0259,-37.3535,-37.0483
3238729,1.4994,0.0792,0.5946,-58.3496,-30.2124,-35.0952
3238749,1.4839,0.0479,0.5775,-51.6968,-30.2124,-35.2783
3238769,1.3579,0.0873,0.5155,-46.1426,-22.522,-37.3535
3238792,1.0389,0.1261,0.4563,-40.1611,-15.7471,-42.2363
3238812,0.8754,0.1274,0.4116,-27.0996,-10.8032,-48.7671
3238832,0.7501,0.2002,0.4335,-15.0757,-11.0474,-48.5229
3238852,0.6581,0.2512,0.36,-1.77,-11.7188,-44.6167
3238872,0.4846,0.3213,0.316,16.6016,-16.1743,-39.6118
3238892,0.3534,0.3276,0.2719,27.4048,-18.6768,-36.499
3238912,0.3314,0.3673,0.2297,33.9966,-23.6206,-16.1743
3238932,0.3018,0.2467,0.2139,38.7573,-24.9634,-18.0664
3238952,0.166,0.1711,0.2684,51.5747,-15.0757,-2.3193
3238972,0.031,0.1351,0.3496,83.6792,3.9673,8.2397
3238993,0.3683,-0.1006,0.4979,89.4775,24.1089,18.9819
3239013,1.2864,-0.5851,0.6693,-25.6348,73.1812,21.7896
3239033,1.2036,-0.6311,0.8628,21.7896,58.5327,36.8042
3239053,1.0194,-0.4418,0.5804,55.2979,22.3999,39.7339
3239073,1.3492,-0.2986,0.6222,91.0645,-16.2354,28.5034
3239093,1.2324,-0.3358,0.571,98.5107,-26.001,25.2686
3239114,1.443,-0.3737,0.5635,78.9185,-17.6392,30.8228
3239134,1.4445,-0.4077,0.5375,63.4155,-7.5684,40.8325
3239154,1.3397,-0.354,0.5133,61.8896,-4.9438,47.2412
3239175,1.0503,-0.2554,0.4824,58.3496,2.5635,52.1851
3239195,0.8473,-0.2297,0.4384,52.5513,9.1553,53.2837
3239215,0.6742,-0.2899,0.4033,37.5977,14.0381,53.1616
3239235,0.6393,-0.3624,0.3888,24.5361,10.2539,47.0581
3239257,0.4551,-0.4302,0.3748,10.8643,4.0894,39.3677
3239277,0.4222,-0.4678,0.2665,5.4321,-4.3335,30.2734
3239297,0.3451,-0.3738,0.2788,2.9907,-12.4512,14.2822
3239317,0.2371,-0.1818,0.3353,4.3945,-7.4463,2.8687
3239337,0.1486,-0.1326,0.3009,8.7891,-3.479,-3.479
3239357,0.175,-0.2307,0.2478,-10.9863,7.4463,-9.7046
3239377,0.4735,-0.2014,0.1766,-46.9971,18.0664,-13.4888
3239397,1.3071,-0.0784,0.4867,-130.9814,49.3164,-17.334
3239417,1.3212,0.2679,0.843,-115.9668,57.0068,-23.7427
3239437,0.7185,0.0416,0.5479,-79.6509,29.7241,-10.9253
3239457,1.0787,-0.0826,0.4653,-84.4116,12.6343,-8.7891
3239477,1.2845,0.1217,0.4622,-75.9277,16.6626,-18.3105
3239497,1.5057,0.234,0.62,-75.8667,25.8789,-18.0664
3239517,1.516,0.0717,0.5338,-66.9556,-38.0859,-39.978
3239537,1.5873,-0.0492,0.547,-66.5894,-28.9307,-38.0859
3239557,1.5031,-0.0599,0.4814,-63.4766,-18.4326,-39.3066
3239577,1.3285,0.0266,0.4695,-56.8237,-10.1929,-41.9922
3239597,1.0011,0.0702,0.3854,-44.2505,-12.085,-44.0063
3239617,0.8177,0.1318,0.3378,-32.0435,-11.0474,-46.1426
3239637,0.7743,0.2014,0.3706,-14.2212,-17.2119,-44.7998
3239657,0.6605,0.2504,0.3766,10.437,-24.292,-41.1987
3239677,0.4495,0.3208,0.3798,24.9634,-28.4424,-34.668
3239697,0.4576,0.3712,0.3463,45.8984,-32.2266,-23.8037
3239720,0.375,0.2865,0.2952,43.457,-31.9214,-15.2588
3239740,0.2596,0.1287,0.2756,46.3257,-21.4233,-8.3008
3239760,0.157,0.0807,0.2776,73.6694,-9.9487,-0.4883
3239780,0.225,0.0568,0.2303,82.5806,5.3101,7.9346
3239800,1.0933,-0.3292,0.0326,39.5508,27.2217,13.6108
3239820,1.5154,-0.6201,1.0122,-67.0166,74.646,10.498
3239842,0.8173,-0.4207,0.5923,32.4707,44.6167,18.7378
3239862,1.1934,-0.3116,0.594,45.6543,-1.3428,18.2495
3239884,1.1521,-0.3766,0.5435,76.7212,-46.1426,4.0283
3239904,1.1964,-0.3162,0.6031,76.2329,-32.4707,6.4697
3239924,1.2915,-0.278,0.5841,63.9038,-33.3862,28.3813
3239944,1.2748,-0.3693,0.5743,56.0913,-25.8179,37.3535
3239964,1.1971,-0.3379,0.5298,57.9224,-19.043,43.7012
3239984,0.9845,-0.2655,0.4705,58.1055,-6.5918,53.0396
3240006,0.8412,-0.2482,0.4381,53.4058,0.6714,57.7393
3240026,0.6986,-0.2903,0.4543,43.5791,2.9907,60.2417
3240046,0.5712,-0.3474,0.4161,29.6631,2.6245,54.9316
3240068,0.4568,-0.4495,0.3796,20.9351,-0.6104,48.2788
3240088,0.4297,-0.4817,0.3307,15.0757,-3.1738,33.2642
3240108,0.4042,-0.3627,0.3384,15.2588,-2.2583,22.1558
3240129,0.2926,-0.2682,0.3942,28.0762,-5.3711,15.564
3240149,0.1981,-0.2383,0.2384,29.0527,1.3428,10.5591
3240169,0.2622,-0.1619,0.2134,-9.3994,20.0806,5.9814
3240189,0.4691,-0.063,0.3976,-33.3252,34.3628,0.1831
3240209,0.9218,-0.1135,-0.2089,-104.7974,46.3867,17.5781
3240231,1.4902,0.1045,2.0623,-255.7373,51.3306,2.9297
3240251,0.7534,-0.073,0.5343,-75.1953,11.5356,7.5073
3240273,1.2953,-0.0238,0.5037,-77.1484,4.9438,6.1035
3240293,1.2849,0.1511,0.5848,-76.7212,7.9956,-18.1885
3240313,1.3281,0.1611,0.517,-63.9648,-32.1045,-44.6777
3240333,1.4706,0.0918,0.4967,-54.6875,-28.0151,-38.9404
3240353,1.512,0.0544,0.5309,-49.7437,-20.9351,-35.8887
3240373,1.4147,-0.0123,0.4955,-45.8984,-23.4375,-34.8511
3240393,1.271,-0.0193,0.4125,-43.2129,-11.2305,-37.2314
3240413,0.9564,0.0247,0.3749,-36.7432,-6.1035,-39.7949
3240433,0.787,0.0763,0.3768,-26.5503,-5.9204,-43.2129
3240453,0.681,0.1666,0.3962,-10.0098,-18.1274,-44.2505
3240473,0.5229,0.2343,0.3798,-1.4038,-37.4756,-38.6353
3240495,0.3652,0.3182,0.3481,1.8921,-39.1846,-34.3628
3240515,0.4668,0.3909,0.3282,20.2637,-20.4468,-27.3438
3240535,0.4736,0.2651,0.2606,24.1699,-5.3101,-19.165
3240555,0.4791,0.1147,0.245,27.4658,2.8076,-15.0146
3240575,0.3751,0.1368,0.2256,38.3911,9.8267,-11.5967
3240595,0.2622,0.1245,0.2395,68.6035,9.9487,-5.5542
3240615,0.5815,0.0507,0.1184,79.1626,25.2686,2.4414
3240635,1.2795,-0.4573,0.4277,-33.0811,56.1523,16.6626
3240655,0.9918,-0.5453,0.6051,7.8735,29.0527,16.5405
3240675,1.0309,-0.5509,0.6503,29.9683,-6.2256,26.2451
3240698,1.2607,-0.5892,0.6316,52.7344,-37.5977,9.4604
3240718,1.1455,-0.4918,0.6136,61.4624,-25.8789,14.5874
3240738,1.396,-0.2819,0.7239,61.3403,-13.6108,20.0806
3240758,1.4047,-0.3564,0.6522,53.2227,-7.7515,35.5835
3240778,1.1835,-0.3634,0.5614,43.7622,0.2441,43.8232
3240798,1.0004,-0.3071,0.4611,40.5884,11.4746,53.5278
3240818,0.8488,-0.2325,0.4166,40.2222,17.7002,57.9224
3240838,0.708,-0.2217,0.4049,31.1279,21.2402,60.4858
3240858,0.687,-0.2758,0.4415,19.4092,17.5781,56.2134
3240881,0.5363,-0.3914,0.3781,5.7983,14.5874,50.9033
3240901,0.4006,-0.434,0.3345,-0.9766,11.1084,37.8418
3240924,0.3986,-0.4952,0.2731,-21.6675,4.3335,27.4658
3240944,0.3335,-0.4539,0.2527,-31.4941,-3.9673,10.6201
3240968,0.1951,-0.2167,0.2229,-41.4429,8.4229,-6.3477
3240988,0.1843,-0.0892,0.1881,-55.4199,17.5781,-11.5356
3241008,0.5879,-0.1403,0.1357,-87.2192,31.9824,-15.9302
3241028,1.5474,-0.016,0.3822,-133.9722,51.0254,-21.7896
3241048,2.0023,0.4166,0.9009,-97.4121,83.313,-40.8936
3241068,0.9006,0.3114,0.6619,-68.7866,9.2163,-6.2256
3241088,1.1602,0.0205,0.5122,-75.9888,1.2817,5.4321
3241108,1.1093,0.2139,0.4736,-95.1538,25.2075,-9.9487
3241131,1.4652,0.0494,0.5758,-89.1113,-7.5073,-15.8691
3241151,1.4371,0.0469,0.4675,-76.5991,-28.9917,-35.8276
3241171,1.3491,0.0732,0.481,-56.5796,-24.0479,-37.1094
3241191,1.2228,0.0869,0.4425,-52.6123,-24.1699,-35.7666
3241213,0.9685,0.0331,0.4127,-46.6309,-11.9629,-34.2407
3241233,0.8813,0.045,0.3429,-37.4146,-4.1504,-37.1704
3241253,0.8199,0.1018,0.3628,-27.1606,-0.1831,-37.8418
3241273,0.7424,0.2258,0.4004,-16.9067,0.9766,-36.0107
3241293,0.5645,0.2589,0.3629,-10.8643,-6.6528,-31.7993
3241313,0.452,0.2793,0.2964,-2.4414,-12.146,-30.3345
3241333,0.4388,0.3077,0.2096,10.0098,-13.7329,-29.7852
3241356,0.4362,0.2389,0.2156,25.1465,-12.5732,-28.1982
3241376,0.3982,0.1659,0.2489,49.6826,-13.855,-27.1606
3241396,0.2954,0.1666,0.2141,72.2046,-11.0474,-22.7051
3241416,0.5195,0.0679,0.2173,82.3975,-1.709,-13.1836
3241436,1.0936,-0.0885,0.3459,35.3394,37.2925,-2.0752
3241459,1.2169,-0.233,0.8729,51.9409,31.25,20.9351
3241479,1.1765,-0.4678,0.6713,39.5508,-17.0898,41.4429
3241499,1.1597,-0.5006,0.4705,58.6548,-41.3208,30.1514
3241519,1.0143,-0.5105,0.4567,70.5566,-49.7437,34.6069
3241539,1.1566,-0.422,0.4954,74.9512,-34.79,34.4849
3241559,1.4382,-0.3643,0.5179,73.3032,-25.3906,39.3677
3241579,1.3988,-0.3101,0.519,65.918,-16.3574,48.4619
3241599,1.2654,-0.2721,0.5129,65.0635,-10.7422,53.5889
3241619,1.1382,-0.2172,0.4601,65.979,-0.7324,60.8521
3241639,0.8837,-0.2128,0.3221,63.6597,5.3711,64.5142
3241659,0.7305,-0.2383,0.2891,57.1899,6.6528,66.04
3241680,0.705,-0.2968,0.3042,47.8516,-2.0142,62.3779
3241701,0.6202,-0.3458,0.3451,32.8979,-11.9019,55.7861
3241721,0.5077,-0.4078,0.356,13.7939,-20.5078,43.1519
3241741,0.4169,-0.5042,0.2915,7.6294,-24.6582,34.3018
3241761,0.3724,-0.4344,0.2574,5.0049,-23.2544,22.8882
3241781,0.2539,-0.1892,0.3082,4.5776,-12.6953,11.7188
3241801,0.1412,-0.1537,0.3008,1.77,-8.7891,11.2305
3241821,0.0731,-0.1946,0.2285,-17.8833,15.2588,7.1411
3241841,0.2347,-0.205,0.2313,-61.3403,32.7148,4.0283
3241861,1.8241,0.0448,0.5704,-168.457,43.7622,-2.1362
3241881,1.6157,0.3157,0.936,-85.144,43.7622,-25.0244
3241901,0.674,0.28,0.8253,-31.7993,5.8594,-5.0049
3241921,1.1533,0.1488,0.6669,-64.5752,4.5166,0.8545
3241941,1.2998,0.1118,0.7412,-86.9751,18.1274,-6.5918
3241962,1.5309,0.0361,0.6401,-77.8198,-36.6211,-29.3579
3241982,1.4668,0.0632,0.6154,-64.8193,-26.062,-27.3438
3242002,1.439,0.0553,0.5916,-62.561,-14.8315,-33.1421
3242022,1.3464,0.0421,0.5067,-58.8379,-8.9111,-36.1328
3242042,1.2184,0.0797,0.475,-56.1523,-1.2817,-40.8325
3242063,1.0518,0.1074,0.4445,-52.3071,-0.5493,-41.8701
3242083,0.865,0.1538,0.4277,-46.0205,-2.3193,-40.0391
3242106,0.6552,0.2091,0.3867,-33.4473,-19.4092,-36.499
3242126,0.5095,0.2152,0.2677,-16.4795,-24.1699,-34.5459
3242146,0.4252,0.2714,0.1951,-9.8267,-24.1089,-32.2266
3242166,0.3644,0.3939,0.1666,11.7188,-23.5596,-20.874
3242186,0.3687,0.3451,0.1451,36.8652,-19.8975,-11.1694
3242206,0.3362,0.2543,0.1465,48.645,-18.0054,-7.2021
3242228,0.1819,0.1765,0.1678,61.4014,-18.3105,-2.6855
3242248,0.0654,0.1841,0.2421,85.2661,-7.8125,4.5166
3242268,0.4365,0.2129,0.2927,91.6748,27.4658,25.2686
3242288,1.283,-0.4451,0.7717,32.5317,37.5977,37.9028
3242309,1.0573,-0.5863,0.8523,40.7104,22.0947,35.8887
3242329,1.0358,-0.4147,0.7078,76.2329,11.3525,32.0435
3242349,1.2057,-0.2886,0.7374,91.7358,-32.2266,28.5645
3242369,1.2645,-0.2784,0.6895,101.0742,-27.8931,25.7568
3242389,1.4404,-0.161,0.7145,100.8301,-16.1133,33.4473
3242409,1.4463,-0.2719,0.6747,100.0977,-9.8877,50.2319
3242449,1.1422,-0.2826,0.5547,94.1162,1.6479,54.8706
3242469,1.0077,-0.2373,0.4489,95.1538,2.6855,55.2979
3242489,0.8829,-0.2048,0.4426,92.4683,10.9863,55.3589
3242509,0.7556,-0.3188,0.4127,83.5571,11.5356,54.6875
3242530,0.6177,-0.3933,0.3989,70.1904,5.249,31.6772
3242550,0.4122,-0.451,0.3478,54.1382,-0.4883,34.1797
3242570,0.371,-0.507,0.2546,39.917,-1.0986,21.6064
3242590,0.3472,-0.5144,0.183,30.1514,-6.897,14.4653
3242610,0.2734,-0.4115,0.1714,17.7002,-9.7656,7.0801
3242630,0.1934,-0.3035,0.2087,-3.2349,-6.3477,3.479
3242650,0.1107,-0.2804,0.296,-48.3398,7.019,-0.9155
3242670,0.1735,-0.2258,0.2963,-81.2988,17.5781,0.061
3242690,0.5319,0.0933,0.5015,-116.8213,45.2881,9.9487
3242710,2.1953,0.0482,1.2903,-224.6094,32.7148,10.5591
3242730,0.8983,0.1305,0.8462,-94.1772,19.6533,6.1646
3242752,1.142,0.1182,0.5529,-88.9893,-7.6294,-10.437
3242773,1.0538,0.2307,0.5345,-92.2852,12.7563,-26.9775
3242793,1.4038,0.0189,0.561,-88.8062,-25.6958,-46.936
3242816,1.4983,0.0573,0.5132,-88.9282,-16.7236,-52.002
3242856,1.3629,0.1031,0.4094,-77.0264,-2.6245,-54.9927
3242904,0.812,0.1444,0.2933,-53.4668,2.1973,-55.7251
3242924,0.6915,0.1802,0.3352,-40.5884,-4.4556,-54.1992
3242944,0.5273,0.2485,0.3519,-16.1133,-14.8315,-51.4526
3242964,0.4161,0.261,0.3494,-3.1738,-16.7847,-45.5322
3242984,0.3401,0.2552,0.3328,11.2305,-27.9541,-31.6162
3243004,0.3916,0.2853,0.2977,17.9443,-12.4512,-19.2871
3243024,0.4214,0.3365,0.2723,25.2686,-8.4839,-8.2397
3243044,0.3525,0.2863,0.2325,36.499,-11.9629,1.6479
3243067,0.2177,0.2021,0.3044,54.0161,-8.2397,8.606
3243087,0.3369,-0.0052,0.2469,64.27,16.4795,18.1885
3243107,1.5068,-0.054,0.79,9.9487,51.3916,8.667
3243127,1.3364,-0.531,0.9832,-11.5356,89.2944,8.7891
3243147,1.129,-0.3854,0.6305,5.127,25.6348,12.6953
3243167,1.182,-0.4005,0.5966,51.6357,-39.5508,13.855
3243187,1.1117,-0.3516,0.6245,82.2144,-69.6411,16.9678
3243207,1.145,-0.1979,0.6493,90.4541,-28.8696,19.2871
3243227,1.4492,-0.1555,0.668,68.5425,-11.9629,31.6162
3243247,1.323,-0.2401,0.5577,53.833,-16.3574,39.7339
3243271,1.045,-0.2954,0.4349,50.415,-2.3193,45.4712
3243291,0.8951,-0.2948,0.3905,52.7954,5.7373,50.293
3243311,0.7515,-0.2791,0.387,49.0723,6.897,53.3447
3243331,0.6771,-0.287,0.3916,41.3818,3.0518,51.9409
3243353,0.5226,-0.33,0.3817,27.4048,-4.0283,44.6167
3243373,0.3754,-0.3945,0.4045,16.0522,-6.8359,36.7432
3243393,0.3274,-0.4491,0.3165,-2.0752,-6.5918,25.4517
3243413,0.3711,-0.4204,0.2944,-15.686,-4.7607,14.6484
3243435,0.2617,-0.29,0.2396,-23.1934,-0.7324,8.2397
3243455,0.1224,-0.2712,0.2406,-25.8179,6.2256,1.709
3243475,0.4709,-0.142,0.3375,-67.2607,24.7803,-1.6479
3243495,1.2924,0.0449,0.384,-121.3379,37.4756,-3.9062
3243515,1.7616,0.1793,0.7789,-113.3423,32.7759,-18.9819
3243535,1.1122,0.1587,0.748,-61.5234,19.4092,-2.5635
3243555,1.2727,0.2211,0.5754,-79.5288,-27.3438,-17.2729
3243575,0.9325,0.1691,0.6387,-91.4917,14.9536,-15.4419
3243595,1.3671,0.0709,0.6743,-83.1299,-23.9258,-23.9868
3243615,1.5366,0.0743,0.7384,-67.3218,-39.3066,-36.3159
3243635,1.5203,0.0771,0.6305,-57.6782,-40.5273,-38.269
3243655,1.4274,0.1498,0.6021,-50.9644,-23.8647,-40.3442
3243675,1.2405,0.1234,0.5095,-45.8984,-12.085,-41.748
3243695,0.8544,0.0779,0.3994,-40.5884,-3.54,-43.8843
3243715,0.6293,0.1348,0.399,-24.7803,-1.1597,-46.3257
3243735,0.5214,0.1949,0.4305,-13.855,-2.5024,-45.2881
3243755,0.4344,0.2406,0.3728,3.0518,-2.0752,-42.6025
3243775,0.3405,0.314,0.3513,15.625,-13.5498,-35.8276
3243795,0.3884,0.4,0.3192,25.2075,-14.8315,-27.5879
3243815,0.4232,0.4203,0.2418,29.9072,-8.7891,-14.4653
3243835,0.3849,0.3217,0.2689,28.6865,-11.5967,-8.4839
3243855,0.1195,0.1981,0.3137,42.3584,-11.3525,-4.2725
3243875,0.1373,0.0623,0.2411,88.6841,-0.6714,3.0518
3243896,0.5385,-0.1466,0.0721,90.1489,17.8833,12.6343
3243916,1.4862,-0.2963,0.0886,-86.3037,73.8525,21.3013
3243936,1.6586,-0.6598,1.2296,-7.7515,67.5049,27.4658
3243956,1.1388,-0.4719,0.6475,40.8325,-16.4185,19.9585
3243976,1.3279,-0.4021,0.5844,55.7861,-42.0532,7.0801
3243996,1.1716,-0.2146,0.5714,93.5059,-68.9087,2.3804
3244016,1.4531,-0.2261,0.7081,75.4395,-7.3853,18.4326
3244036,1.3967,-0.2654,0.6981,55.4199,-11.2915,30.3345
3244059,1.2212,-0.2797,0.5928,46.5698,-10.1929,36.499
3244079,0.9213,-0.2307,0.4989,49.9268,4.0283,41.3818
3244099,0.7457,-0.2146,0.4541,50.0488,8.9722,46.0815
3244120,0.6458,-0.2869,0.4176,44.8608,10.2539,48.3398
3244140,0.559,-0.3517,0.3982,37.1094,4.0894,47.7905
3244160,0.4674,-0.4015,0.3888,18.3105,-5.4932,39.978
3244180,0.411,-0.4227,0.3297,6.0425,-8.8501,32.4707
3244200,0.3954,-0.4502,0.2897,-7.3242,-5.3101,24.7803
3244220,0.35,-0.3939,0.303,-13.0615,-2.6855,13.0615
3244240,0.2205,-0.2384,0.2833,-10.7422,1.4038,5.249
3244260,0.1635,-0.1947,0.2247,-8.7891,1.0986,2.9297
3244302,0.6683,-0.0115,0.2607,-77.9419,22.8882,-3.2349
3244322,1.8934,0.4485,1.285,-156.7383,71.8384,-13.9771
3244342,1.0858,0.1572,0.7388,-52.9785,15.0146,1.2207
3244363,1.2194,0.0582,0.5951,-42.4805,-46.6919,14.2822
3244383,1.0861,0.2745,0.6218,-86.3037,42.7856,-2.7466
3244405,1.467,0.0342,0.6672,-76.1108,-29.1748,-24.353
3244425,1.4845,0.0564,0.6846,-66.4673,-18.9209,-34.6069
3244445,1.5057,0.0637,0.5515,-48.0957,-16.0522,-36.1328
3244465,1.3655,0.1188,0.4883,-36.1328,-13.3667,-38.0859
3244485,1.1282,0.1565,0.4609,-26.8555,-8.3008,-37.1704
3244505,0.769,0.1218,0.3774,-20.874,-3.7842,-36.8042
3244525,0.6709,0.1277,0.4246,-7.2632,-2.6855,-40.4053
3244545,0.6757,0.1224,0.4216,1.2207,-5.4932,-41.748
3244565,0.4165,0.2499,0.4174,4.6387,-11.9019,-36.5601
3244585,0.3352,0.2838,0.3636,18.7378,-25.3296,-27.4658
3244605,0.326,0.4141,0.2162,28.0762,-19.2871,-24.1089
3244625,0.3173,0.4158,0.201,38.9404,-12.146,-18.0664
3244645,0.3445,0.3188,0.2094,52.6123,-18.3105,-12.6953
3244665,0.21,0.1683,0.1942,68.2373,-20.3247,-6.7749
3244685,0.146,0.0531,0.209,83.5571,-11.5967,-0.4272
3244705,0.9545,-0.5175,0.2012,53.5889,26.2451,16.1133
3244725,1.9921,-0.5472,1.3804,-48.584,82.7637,9.0942
3244745,0.9973,-0.5228,0.6428,17.2119,14.5264,28.8086
3244765,1.1042,-0.5293,0.701,39.6118,-17.8223,28.1372
3244785,0.9984,-0.4244,0.6931,66.4062,-53.2227,7.3853
3244805,1.2693,-0.2463,0.7623,71.7163,-19.8975,-0.2441
3244825,1.4337,-0.2344,0.7655,57.0679,-16.7236,24.231
3244846,1.3899,-0.2982,0.676,52.3071,-15.8081,37.0483
3244867,1.2421,-0.3431,0.5618,49.8047,-5.188,41.3818
3244887,1.0811,-0.3109,0.5148,47.4243,3.8452,42.9688
3244907,0.8668,-0.259,0.428,38.208,12.5122,51.6968
3244927,0.7605,-0.2751,0.3864,30.7007,17.5171,53.5889
3244947,0.7269,-0.3109,0.3733,21.1792,9.7046,48.5229
3244967,0.5546,-0.3507,0.3875,17.0898,-4.5776,43.8843
3244991,0.3529,-0.37,0.2695,10.8032,-11.0474,30.7007
3245011,0.3417,-0.3741,0.2648,3.6011,-13.855,24.7192
3245031,0.3235,-0.3413,0.3043,2.5635,-14.0991,13.7329
3245052,0.1173,-0.225,0.2433,-4.5776,-14.4043,7.5684
3245072,0.083,-0.1416,0.2651,-45.2271,3.479,1.8921
3245092,0.422,0.0365,0.4298,-67.8101,22.583,0.5493
3245112,1.2603,0.2196,0.4393,-105.4077,50.293,6.6528
3245132,1.0762,0.2087,0.9198,-89.5386,58.96,-2.3804
3245152,0.9393,-0.0679,0.7585,-87.4634,15.4419,9.2773
3245173,1.2061,0.1913,0.5819,-90.6372,38.6353,-9.3994
3245193,1.5309,0.056,0.7616,-88.3179,2.3193,-31.6772
3245213,1.5581,0.0627,0.5981,-78.7964,-36.0107,-51.0864
3245234,1.524,0.1443,0.5922,-59.4482,-19.8975,-48.3398
3245255,1.4319,0.1527,0.5808,-51.3306,-21.1182,-48.4009
3245276,1.1597,0.1083,0.4626,-40.4053,-12.2681,-47.7295
3245296,0.9594,0.1024,0.4203,-32.5928,-5.4321,-49.2554
3245317,0.7086,0.1566,0.3296,-21.8506,-2.2583,-52.1851
3245337,0.5948,0.2446,0.3267,-6.8359,-4.9438,-47.9736
3245357,0.5464,0.26,0.3409,11.2915,-20.1416,-40.7715
3245377,0.4606,0.3706,0.3246,32.959,-35.4004,-34.2407
3245397,0.3767,0.453,0.2773,41.3818,-45.166,-18.2495
3245417,0.2734,0.3511,0.2599,42.2974,-30.1514,-6.6528
3245437,0.2429,0.1953,0.3683,53.5889,-23.4375,0.4272
3245457,0.2985,0.0599,0.355,62.5,-8.667,9.0332
3245481,1.0886,-0.3079,0.4393,18.5547,36.3159,12.3291
3245501,0.9554,-0.4734,0.699,20.9961,46.0815,21.3013
3245521,1.0284,-0.4469,0.5734,22.2168,23.1323,25.8179
3245541,1.1764,-0.4186,0.5406,43.0298,-9.0942,19.2261
3245561,1.0107,-0.4125,0.567,58.5327,-58.1055,13.3667
3245581,1.0135,-0.2584,0.6389,71.106,-44.4946,12.5122
3245601,1.1965,-0.2618,0.6737,69.2139,-20.4468,30.5786
3245624,1.1927,-0.3054,0.5934,59.9976,-13.0615,40.5884
3245644,1.0225,-0.2703,0.5059,54.7485,-3.54,44.9829
3245665,0.9285,-0.2771,0.4803,48.584,7.6294,49.9878
3245685,0.8588,-0.3479,0.4585,43.9453,10.1929,53.1006
3245705,0.7373,-0.4025,0.4382,35.4004,9.8877,52.9785
3245725,0.5743,-0.4395,0.4183,23.0103,2.5635,47.7905
3245745,0.4099,-0.4736,0.3643,14.5264,-4.6997,43.0908
3245765,0.3398,-0.4218,0.2604,1.4648,-7.1411,32.6538
3245785,0.2234,-0.3381,0.2312,-1.1597,-7.8125,26.5503
3245806,0.1224,-0.2552,0.2289,-9.1553,-2.1973,22.0337
3245826,0.0215,-0.1893,0.2336,-30.5786,8.9111,11.3525
3245847,0.1729,-0.1422,0.3584,-59.021,20.874,3.7231
3245867,0.678,-0.1833,0.1879,-142.2119,48.584,-3.418
3245887,1.839,0.6128,1.12,-53.7109,70.1294,-32.4097
3245907,0.9526,0.1908,0.5159,-48.0347,26.2451,5.8594
3245927,1.3794,0.2151,0.5739,-63.2324,3.6621,3.479
3245947,1.0366,0.2993,0.5763,-78.7964,30.6396,-0.2441
3245968,1.5254,0.0569,0.7131,-75.5615,-12.7563,-16.2964
3245992,1.5043,0.0405,0.6823,-59.2651,-33.02,-30.3955
3246012,1.4901,0.0321,0.5929,-47.7905,-32.0435,-36.1328
3246032,1.3762,0.0939,0.5446,-42.9077,-19.7754,-42.1143
3246052,1.056,0.1306,0.4108,-40.5273,-4.8218,-45.105
3246073,0.8392,0.1385,0.3595,-38.147,2.9907,-47.9736
3246093,0.5944,0.1804,0.3706,-27.771,4.0283,-50.4761
3246113,0.5975,0.2223,0.4103,-19.043,1.0986,-51.2695
3246133,0.5011,0.2804,0.4121,-0.1221,-22.1558,-44.6777
3246153,0.3184,0.2909,0.3229,29.4189,-36.377,-34.79
3246173,0.339,0.3843,0.2469,36.6821,-30.3955,-24.7192
3246194,0.3793,0.391,0.2662,32.7759,-19.4702,-14.7705
3246214,0.2966,0.2629,0.2893,38.269,-22.1558,-7.0801
3246234,0.1156,0.2177,0.262,67.5049,-20.5688,1.0376
3246254,0.0712,0.0233,0.2722,87.5854,-4.6387,10.3149
3246274,0.309,-0.2297,0.1627,66.2231,40.2222,20.3247
3246294,2.6198,-0.6732,1.4917,-94.0552,88.562,14.3433
3246315,0.9957,-0.3671,0.7982,-2.6855,96.9238,21.9116
3246335,1.1606,-0.3047,0.5818,50.8423,-39.856,19.2871
3246355,1.2274,-0.507,0.6265,77.2095,-69.5801,-3.6011
3246375,1.166,-0.2981,0.6144,85.2051,-35.5225,-4.2725
3246395,1.4033,-0.1759,0.6949,76.6602,-17.2729,20.4468
3246415,1.3378,-0.3037,0.665,59.8755,-17.0898,37.2925
3246435,1.1833,-0.3422,0.5807,58.1665,-14.8926,39.978
3246455,0.9493,-0.2927,0.4476,54.3213,-6.6528,43.2739
3246475,0.8195,-0.2452,0.4391,47.3022,0.3052,48.7061
3246495,0.6757,-0.2963,0.392,32.5928,2.9297,53.2227
3246515,0.5406,-0.3224,0.4121,22.0947,-0.1831,51.6968
3246537,0.3835,-0.3809,0.3622,16.1133,-11.9629,47.3633
3246557,0.3934,-0.4347,0.3527,5.0659,-16.5405,38.8794
3246580,0.2955,-0.4242,0.3379,-3.2959,-18.9819,21.4844
3246600,0.1682,-0.283,0.3018,3.6621,-4.4556,8.9722
3246620,0.1157,-0.2844,0.1832,-1.8311,4.9438,4.3335
3246640,0.1346,-0.2507,0.1812,-30.0293,10.9253,-2.0752
3246660,0.3312,-0.0839,0.3569,-74.5239,29.7241,-10.9863
3246680,1.8922,-0.084,-0.3328,-114.502,57.312,-6.7749
3246700,1.7993,0.4955,1.5978,-192.3218,108.7036,-28.5034
3246720,0.8656,0.0084,0.7958,-48.2178,5.127,13.3667
3246740,1.1465,0.1317,0.4685,-65.3687,-3.6011,-5.7373
3246760,1.2468,0.1942,0.6769,-95.3979,40.8936,-6.1035
3246781,1.4646,-0.0199,0.6189,-79.4678,-40.1611,-36.2549
3246801,1.4442,0.0664,0.6185,-60.6079,-19.7144,-45.5322
3246821,1.3661,0.1165,0.5568,-52.9175,-11.0474,-47.5464
3246841,1.2136,0.0513,0.4166,-42.2974,-3.9673,-45.7764
3246864,0.8942,0.0725,0.3502,-38.0859,7.1411,-50.0488
3246885,0.7246,0.1176,0.3827,-29.1138,15.3809,-54.0771
3246905,0.6615,0.1903,0.4044,-5.5542,5.6152,-54.4434
3246925,0.5071,0.2363,0.3696,11.6577,-18.8599,-48.8892
3246945,0.3865,0.2668,0.3563,19.5312,-34.1797,-38.6963
3246965,0.3318,0.3213,0.2509,27.1606,-29.6631,-34.668
3246985,0.3894,0.3904,0.233,28.3203,-17.9443,-20.3857
3247005,0.3966,0.2695,0.2599,24.1699,-15.564,-11.7798
3247025,0.1672,0.244,0.3224,39.856,-10.0098,-2.4414
3247045,0.1715,0.207,0.3422,60.9741,-3.479,7.1411
3247065,1.0394,-0.1975,-0.0825,60.1196,11.9629,18.3105
3247085,1.6567,-0.7245,1.972,-108.8867,91.6138,36.0718
3247105,0.7499,-0.3177,0.4651,10.8032,29.1138,36.3159
3247125,1.2136,-0.4055,0.7499,29.4189,6.1646,34.9121
3247145,1.1875,-0.3269,0.6605,81.2988,-68.7256,21.9116
3247167,1.2427,-0.2388,0.6642,80.3223,-30.7007,12.0239
3247187,1.415,-0.2549,0.7411,66.4673,-3.9062,26.5503
3247207,1.3645,-0.3115,0.624,62.561,-18.0664,37.5977
3247227,1.1714,-0.2902,0.519,61.4624,-8.8501,38.6353
3247247,0.9008,-0.2217,0.4349,62.7441,2.8076,43.5181
3247267,0.7338,-0.1752,0.3713,72.5098,7.2021,54.5654
3247287,0.6289,-0.1663,0.3392,75.4395,10.6812,55.7861
3247307,0.4713,-0.2621,0.3838,77.9419,3.8452,53.1006
3247327,0.3636,-0.3967,0.3574,85.022,-6.4697,42.8467
3247347,0.3676,-0.4478,0.183,62.9272,-9.0942,32.5928
3247367,0.3091,-0.3224,0.2421,36.499,-14.5874,23.4375
3247387,0.2592,-0.2328,0.3367,34.1797,-6.0425,21.9727
3247407,0.1475,-0.2697,0.299,36.0718,13.1226,16.6016
3247427,0.1123,-0.3175,0.1141,26.062,19.2871,13.9771
3247447,0.5642,-0.2483,0.1763,-54.1382,23.1934,9.7046
3247467,1.4397,-0.0776,-0.0098,-143.3105,20.874,13.1836
3247487,1.2909,0.3961,1.219,-168.1519,91.5527,-23.0103
3247507,0.8191,0.0137,0.5765,-74.4019,1.9531,0.9766
3247530,1.1699,0.0999,0.5076,-71.4722,-4.5776,-5.3711
3247550,1.3896,0.2156,0.7296,-81.604,15.0757,-2.8687
3247570,1.6001,0.1091,0.6378,-53.0396,-34.9731,-26.5503
3247590,1.4773,0.115,0.6056,-58.0444,-41.8091,-20.5078
3247610,1.4259,0.0786,0.5514,-67.0166,-6.5308,-24.5361
3247633,1.1559,0.0579,0.4521,-57.6172,-7.8125,-25.0854
3247653,0.8259,-0.0188,0.3738,-49.1333,13.2446,-35.8887
3247673,0.7776,-0.0237,0.2523,-37.2925,19.4702,-42.1753
3247693,0.7394,0.0524,0.2563,-38.8794,15.9912,-45.166
3247713,0.7162,0.2012,0.3192,-37.4146,-3.2349,-41.5649
3247733,0.4856,0.3435,0.3641,-35.5225,-23.9868,-27.0386
3247754,0.392,0.3422,0.276,-5.6152,-22.2778,-25.4517
3247774,0.4678,0.4027,0.2473,5.0049,-19.104,-25.4517
3247794,0.4519,0.3518,0.2366,27.2217,-18.4937,-24.1089
3247814,0.2982,0.2378,0.2252,46.1426,-19.4092,-21.4844
3247834,0.1118,0.1731,0.2346,66.1621,-11.1694,-18.3716
3247854,0.3011,0.1356,0.3585,74.585,23.9258,-10.0708
3247874,1.5194,-0.5844,0.3131,33.7524,51.5137,2.1973
3247894,1.5677,-0.6331,0.9683,-44.1895,54.0161,2.4414
3247914,0.8706,-0.3932,0.5531,30.2124,-14.2822,11.6577
3247934,1.2882,-0.3132,0.3813,52.7954,-47.1191,4.8218
3247954,1.2343,-0.3495,0.5851,59.1431,-43.457,-7.019
3247975,1.3628,-0.2266,0.7482,57.251,-24.6582,2.6855
3247995,1.4194,-0.2996,0.7052,60.4248,-23.2544,16.7236
3248015,1.3417,-0.2839,0.5909,60.9131,-20.4468,27.5879
3248035,1.1774,-0.2429,0.5098,57.9834,-6.0425,36.7432
3248055,1.0172,-0.2405,0.4559,58.6548,-0.2441,42.9688
3248078,0.7563,-0.2714,0.4038,62.5,2.3193,49.1943
3248098,0.7213,-0.3461,0.4028,48.0957,5.0049,50.5371
3248118,0.5753,-0.3901,0.4104,43.396,-7.3242,44.6167
3248141,0.3785,-0.3839,0.3523,42.7856,-22.0337,33.7524
3248161,0.3179,-0.3779,0.2212,43.7012,-25.0854,28.4424
3248185,0.2938,-0.3527,0.1898,19.043,-30.2124,22.522
3248205,0.2098,-0.3091,0.1295,2.9297,-14.3433,15.8691
3248225,0.0853,-0.2153,0.2102,-11.3525,-3.9062,10.1318
3248245,0.1499,-0.1053,0.3602,-58.8989,19.7754,3.54
3248266,1.2517,-0.3118,-0.1459,-156.1279,37.9639,10.498
3248287,2.0995,0.2548,1.9801,-317.9932,128.1738,-17.5781
3248307,0.986,0.3198,0.6617,-103.6377,52.6733,-13.1836
3248327,1.1614,-0.0803,0.6234,-88.3789,-0.1221,-4.7607
3248347,0.953,0.298,0.796,-96.3135,38.5742,-9.0942
3248367,1.5619,0.0551,0.7521,-74.1577,-32.8369,-37.8418
3248387,1.5432,0.1656,0.6727,-62.3779,-57.251,-53.2227
3248407,1.4167,0.0995,0.6501,-52.9785,-29.7241,-42.7246
3248427,1.2856,0.0269,0.4923,-50.415,-10.2539,-44.3115
3248447,1.0731,0.0831,0.423,-48.645,2.5024,-46.5088
3248468,0.7214,0.1296,0.3521,-34.1797,9.1553,-46.7529
3248488,0.6488,0.1586,0.3802,-20.9351,10.0708,-45.5322
3248512,0.5895,0.2306,0.3877,5.127,-4.8218,-42.7246
3248532,0.3712,0.2616,0.353,12.3291,-22.4609,-33.5083
3248552,0.1866,0.2865,0.2438,21.6064,-25.9399,-29.4189
3248572,0.2804,0.3865,0.1923,36.2549,-17.5171,-28.5034
3248592,0.439,0.3446,0.1704,55.2979,-7.7515,-20.2026
3248612,0.4645,0.1481,0.1898,51.4526,-13.5498,-12.5122
3248632,0.3026,0.0624,0.2233,52.3682,-14.5874,-0.8545
3248652,0.4382,-0.1541,0.3878,53.2837,9.9487,8.1177
3248672,1.5525,-0.3431,0.3848,10.1929,50.1099,11.6577
3248692,1.3989,-0.6443,0.7191,21.6675,59.2041,30.5176
3248715,1.2128,-0.3212,0.6228,40.7715,6.3477,30.7007
3248735,1.1309,-0.4502,0.601,78.0029,-65.918,25.6958
3248755,1.1149,-0.4526,0.5798,87.5244,-19.6533,19.2261
3248775,1.431,-0.2848,0.7139,83.9233,-7.7515,27.0386
3248795,1.4562,-0.3176,0.6711,68.6646,-28.0151,42.6636
3248817,1.2021,-0.3528,0.4919,64.5142,-17.7612,48.0347
3248840,1.0353,-0.3169,0.4198,64.3311,-5.7983,52.4292
3248861,0.7909,-0.2484,0.3602,61.5234,0.5493,59.3262
3248881,0.6823,-0.2676,0.4083,57.6782,-1.2817,62.9272
3248903,0.5874,-0.3823,0.4288,41.4429,-7.0801,60.9741
3248923,0.4984,-0.5212,0.4249,26.3062,-17.7612,53.5889
3248943,0.3303,-0.5847,0.3175,14.0991,-28.1372,33.6914
3248965,0.3212,-0.4622,0.2572,7.6294,-28.4424,22.0337
3248985,0.3187,-0.2748,0.2227,4.8828,-19.7144,12.3291
3249005,0.196,-0.1738,0.1992,-1.2817,-6.4697,10.8643
3249025,0.0256,-0.1487,0.1517,-8.606,6.3477,7.4463
3249045,0.2024,-0.0973,0.3523,-48.4619,18.7988,3.1128
3249065,1.6288,-0.1055,-0.2671,-174.0723,41.9312,5.9204
3249085,1.6859,0.6149,1.5188,-224.4263,164.1846,-27.771
3249105,0.8574,0.0861,0.5641,-89.7217,42.3584,-11.2915
3249125,1.2826,0.0099,0.5432,-79.1016,-10.0708,-7.9956
3249145,1.1564,0.2954,0.4789,-91.1865,10.6812,-26.4282
3249168,1.5006,0.1465,0.7111,-69.9463,-24.4141,-32.1045
3249188,1.5103,0.1223,0.6752,-57.8003,-46.814,-46.4478
3249228,1.4913,0.0109,0.5756,-51.0864,-24.1089,-41.9312
3249248,1.3091,0.0281,0.5035,-50.9644,-12.8174,-44.5557
3249268,1.05,0.0635,0.4371,-41.1377,-2.6855,-48.645
3249288,0.7939,0.2075,0.4391,-23.7427,-2.0142,-52.3682
3249312,0.6428,0.2462,0.4041,-0.4883,-19.165,-49.1333
3249332,0.425,0.1979,0.3083,17.4561,-29.9683,-38.147
3249352,0.2831,0.2482,0.3053,26.3672,-30.0903,-32.6538
3249373,0.3232,0.3895,0.2531,40.5273,-27.6489,-27.71
3249393,0.281,0.2577,0.1741,48.2178,-14.0381,-19.165
3249413,0.265,0.1509,0.1454,50.1099,-13.855,-12.9395
3249433,0.1956,0.1218,0.142,61.0352,-11.4136,-3.54
3249454,0.1277,0.0718,0.3752,83.6182,2.6855,12.5122
3249475,0.9988,-0.3442,0.2076,68.4814,36.6211,21.0571
3249495,1.4523,-0.6118,1.4685,-29.6021,116.6382,16.1133
3249515,0.9623,-0.4844,0.6696,39.4287,-3.54,33.02
3249536,1.2188,-0.5594,0.5525,58.2275,-43.7622,18.5547
3249556,0.9045,-0.5936,0.5264,71.5332,-65.1855,17.0898
3249576,0.9854,-0.441,0.6764,64.0869,-13.9771,15.625
3249596,1.2761,-0.1953,0.7913,67.8101,-21.7896,24.6582
3249616,1.3347,-0.2379,0.7328,64.7583,-20.6909,34.4238
3249636,1.3059,-0.2074,0.6801,69.458,-6.8359,42.4194
3249656,1.1083,-0.23,0.5709,66.6504,3.418,51.1475
3249676,0.9167,-0.2805,0.5148,59.2651,6.4087,53.4058
3249696,0.7845,-0.3685,0.4164,44.1284,10.0098,57.5562
3249716,0.6783,-0.3738,0.3969,29.2969,3.7231,52.6123
3249736,0.4038,-0.3909,0.3545,22.7051,-9.7046,46.6919
3249756,0.2795,-0.4453,0.2604,14.0381,-18.4326,36.1328
3249776,0.2471,-0.4282,0.3236,6.7749,-23.5596,26.9775
3249796,0.1035,-0.3134,0.2308,4.6997,-18.8599,17.0288
3249820,0.0087,-0.1796,0.1465,-3.6621,4.3335,7.4463
3249840,0.0164,-0.1888,0.1674,-27.4048,19.3481,0.7324
3249863,0.4548,-0.2529,0.2975,-85.5713,30.2124,-6.3477
3249883,1.6583,-0.0186,-0.2378,-160.9497,34.9731,-4.6387
3249903,2.2382,0.4987,1.674,-110.2295,94.8486,-24.9634
3249923,0.704,0.1505,0.8519,-83.6182,15.0757,1.9531
3249943,1.0507,-0.0162,0.549,-70.1904,-41.5039,7.6294
3249963,1.2167,0.1716,0.7993,-101.2573,58.3496,-12.4512
3249983,1.5867,-0.036,0.7399,-87.0972,-35.9497,-37.0483
3250003,1.5776,0.0961,0.7675,-76.4771,-39.2456,-41.8091
3250023,1.5145,-0.0137,0.7039,-68.6035,-31.7383,-44.9219
3250043,1.4031,0.0669,0.6111,-66.2231,-16.0522,-50.1709
3250063,1.101,0.1514,0.5016,-64.5142,-2.1973,-53.4668
3250083,0.8512,0.2142,0.4664,-52.4292,4.0894,-55.542
3250103,0.7284,0.2667,0.4939,-33.6304,3.54,-56.7017
3250123,0.4948,0.3427,0.3783,-6.1646,-12.9395,-54.9927
3250143,0.3209,0.3123,0.2949,31.8604,-30.5786,-50.1099
3250163,0.2596,0.4194,0.189,53.4058,-34.729,-46.4478
3250183,0.3119,0.4666,0.2479,48.645,-30.7007,-35.4614
3250203,0.2979,0.3636,0.2211,57.251,-34.0576,-19.8364
3250225,0.1764,0.1753,0.1152,65.4297,-23.4985,-6.2256
3250245,0.0067,0.161,0.114,76.4771,-13.7939,9.3994
3250265,0.2416,0.0239,0.3615,101.9897,16.9678,19.5923
3250285,2.0424,-0.7308,0.7258,-8.3618,71.228,21.4844
3250305,1.2869,-0.542,0.9945,-0.1831,112.854,8.8501
3250325,1.04,-0.6349,0.6721,30.9448,39.2456,24.9023
3250387,1.1692,-0.2125,0.6431,82.2144,-7.7515,16.6016
3250421,1.48,-0.2809,0.6406,56.6406,-17.8833,40.1611
3250441,1.2168,-0.308,0.5192,53.5278,-6.3477,50.5371
3250462,1.0737,-0.3032,0.4901,54.1382,-0.4272,56.6406
3250482,0.8439,-0.3323,0.4301,50.7202,8.0566,61.0352
3250505,0.6958,-0.3497,0.3641,38.269,12.5122,57.7393
3250528,0.575,-0.3939,0.3888,31.0059,3.2349,52.063
3250548,0.4098,-0.4083,0.3313,13.855,-16.7847,41.9312
3250572,0.3411,-0.4403,0.3,-0.5493,-24.353,27.3438
3250592,0.1948,-0.3539,0.3491,9.5215,-27.1606,10.1318
3250612,0.0775,-0.1925,0.3345,13.9771,-19.4702,6.7139
3250632,-0.0078,-0.1809,0.2196,3.8452,2.0752,-1.6479
3250653,0.0557,-0.2296,0.2341,-31.7993,17.2729,-6.958
3250673,0.8944,-0.384,0.0543,-133.606,45.2271,-9.8267
3250693,2.082,0.1421,1.3943,-225.5249,123.5962,-30.7617
3250713,1.5359,0.3948,0.6696,-65.3687,49.9268,-35.2783
3250733,0.8979,-0.1466,0.5983,-96.8628,35.5835,6.4697
3250753,1.2002,0.0042,0.4874,-90.271,18.0054,-16.1743
3250773,1.3693,0.0743,0.6809,-107.9712,36.9873,-14.1602
3250795,1.5684,0.0402,0.5426,-92.041,-55.7251,-51.8188
3250815,1.507,0.0352,0.571,-78.125,-37.9028,-52.002
3250835,1.3977,0.0424,0.5518,-73.3032,-32.2266,-51.3916
3250855,1.2181,0.0599,0.4353,-75.3784,-14.8926,-50.5981
3250875,1.0012,0.132,0.3668,-71.2891,-9.3994,-53.0396
3250895,0.809,0.1753,0.3625,-57.4951,-1.77,-54.9927
3250915,0.6998,0.2253,0.4314,-48.1567,-8.8501,-53.894
3250935,0.5511,0.3046,0.3973,-27.9541,-21.2402,-50.7812
3250955,0.3176,0.2733,0.3353,-8.9111,-39.5508,-42.7856
3250975,0.2643,0.3385,0.2798,17.334,-47.6685,-36.5601
3250995,0.3702,0.4196,0.2039,25.8179,-32.2266,-20.752
3251015,0.2999,0.3075,0.2194,28.0151,-21.4844,-8.5449
3251036,0.1573,0.1188,0.1989,41.3818,-13.0615,-3.9062
3251056,0.0918,0.0449,0.262,52.3071,14.3433,-0.7935
3251076,0.8983,-0.3431,0.3158,39.6118,45.4102,1.3428
3251139,1.0986,-0.3219,0.5975,31.6162,2.8687,18.0664
3251159,1.0762,-0.4281,0.6021,62.3169,-77.3926,3.7842
3251179,1.0266,-0.3314,0.5167,75.4395,-73.7305,1.5869
3251199,1.2849,-0.2389,0.6913,69.519,-20.2637,22.1558
3251221,1.2864,-0.381,0.6545,64.27,-24.9634,29.48
3251241,1.2286,-0.3386,0.6276,59.8145,-9.9487,32.2876
3251261,1.1029,-0.2797,0.5437,58.7769,-5.0659,35.9497
3251281,0.8634,-0.2551,0.4606,57.312,2.1973,46.1426
3251301,0.7222,-0.2991,0.4083,47.6685,6.0425,50.9033
3251321,0.6278,-0.3765,0.3802,35.4004,13.3667,52.9175
3251341,0.4941,-0.4431,0.335,21.7896,1.4038,48.8892
3251361,0.4304,-0.502,0.3197,10.0098,-5.5542,36.6821
3251381,0.4102,-0.4204,0.3368,0.5493,-14.9536,28.5645
3251422,0.1659,-0.2367,0.3428,-6.7749,-17.2729,18.5547
3251442,0.0659,-0.2366,0.2748,-28.8086,0.1221,12.6953
3251462,0.6862,-0.2761,0.403,-98.938,32.2266,0.7324
3251482,1.0581,-0.144,0.5358,-141.4795,85.144,-10.6201
3251502,1.3263,0.3728,0.7721,-88.0127,89.3555,-12.0239
3251522,0.9635,0.0952,0.5038,-82.1533,47.0581,-4.8218
3251542,1.15,0.0234,0.5017,-82.0312,11.4136,-1.2817
3251562,0.9811,0.1564,0.4473,-80.3223,22.8882,-1.0986
3251582,1.3981,0.1063,0.6624,-85.4492,24.7192,-6.1646
3251602,1.5383,0.0663,0.5726,-70.5566,-53.2227,-36.9263
3251622,1.5656,-0.0204,0.5802,-59.4482,-36.2549,-37.5977
3251643,1.3793,0.0271,0.528,-56.5186,-32.959,-41.8701
3251663,1.0951,0.0894,0.4714,-52.6123,-17.2729,-46.4478
3251683,1.0143,0.1035,0.4221,-48.5229,-15.0146,-48.1567
3251703,0.786,0.1392,0.3882,-39.978,-15.8691,-53.7109
3251723,0.642,0.2471,0.4064,-28.2593,-19.8364,-52.6733
3251743,0.5488,0.2798,0.3837,-17.334,-25.1465,-46.875
3251763,0.2393,0.2281,0.365,-0.3052,-51.9409,-35.5225
3251783,0.225,0.2761,0.354,20.3857,-55.7251,-35.8887
3251805,0.249,0.3834,0.2587,38.5132,-48.0957,-32.1655
3251825,0.2023,0.2347,0.272,39.6729,-26.3672,-15.4419
3251845,0.1438,0.0875,0.3909,42.6636,-3.1738,-0.6714
3251865,0.2097,-0.1158,0.4952,44.6777,29.1748,4.5776
3251885,1.5299,-0.1991,1.0367,6.4697,99.3042,-11.3525
3251906,1.2738,-0.4493,0.9941,24.1089,92.5293,11.5356
3251926,1.0044,-0.1664,0.6597,57.8613,3.54,27.0996
3251946,1.0234,-0.2917,0.557,72.6318,-48.3398,31.0669
3251966,0.8362,-0.453,0.5836,75.3784,-23.8647,28.5034
3251988,1.1405,-0.3936,0.729,69.0918,-13.1226,26.123
3252008,1.261,-0.3832,0.7173,44.7388,-20.5688,33.9355
3252028,1.1833,-0.4055,0.6052,40.1001,-18.4937,35.2173
3252051,1.1112,-0.2856,0.5154,50.8423,-5.127,39.7339
3252071,0.8713,-0.1306,0.4819,59.082,-2.6855,47.1191
3252092,0.6886,-0.1775,0.4636,60.73,3.2349,54.1992
3252112,0.4813,-0.2423,0.4531,54.6265,8.1787,56.7017
3252132,0.416,-0.3093,0.3958,47.9126,7.0801,57.251
3252152,0.4196,-0.448,0.4144,29.9683,2.0752,54.3823
3252172,0.3574,-0.4301,0.3289,21.1792,-1.77,42.2363
3252194,0.2643,-0.4071,0.2434,5.249,-5.4932,29.9683
3252214,0.2062,-0.3854,0.2336,-5.7373,-2.0142,22.1558
3252234,0.1467,-0.321,0.2651,-27.6489,7.3853,12.2681
3252254,0.2493,-0.2596,0.3025,-56.8237,22.1558,5.188
3252274,0.6814,-0.1873,0.3115,-98.2666,59.5703,-3.8452
3252294,1.5542,0.2552,0.9875,-135.437,89.1113,-15.0757
3252314,1.1993,0.1179,0.6721,-82.5195,44.9829,-15.1978
3252334,0.8358,0.0021,0.5767,-80.2002,6.2256,-4.0283
3252354,1.1359,0.193,0.5364,-86.4868,-7.2021,-12.5732
3252374,1.3943,0.1982,0.7648,-88.8672,15.8691,-13.4888
3252396,1.5171,0.1167,0.6599,-73.4253,-43.457,-37.8418
3252416,1.5117,0.0046,0.6616,-65.3076,-34.9121,-38.7573
3252436,1.4487,0.0299,0.606,-66.2231,-18.3105,-42.4805
3252456,1.2638,0.1115,0.528,-62.1948,-8.9722,-46.1426
3252476,1.0493,0.2085,0.4507,-56.2744,-2.2583,-48.3398
3252496,0.853,0.2312,0.4589,-47.1802,-0.2441,-48.4619
3252516,0.6725,0.3055,0.4901,-26.4282,-10.437,-47.1191
3252536,0.485,0.3177,0.4125,-10.0098,-28.6255,-42.7246
3252556,0.3221,0.288,0.3917,7.1411,-41.5039,-34.5459
3252576,0.2855,0.3282,0.3441,24.231,-40.5273,-33.3862
3252598,0.3174,0.434,0.3115,41.3818,-32.5928,-29.2969
3252618,0.2568,0.4038,0.2389,57.4951,-15.3198,-17.1509
3252638,0.1627,0.1776,0.1755,70.8618,-5.3101,-9.5215
3252658,0.0868,0.0752,0.2458,88.1348,4.0283,-1.77
3252678,0.2019,-0.2175,0.3167,71.2891,38.3911,5.8594
3252698,1.337,-0.5262,0.7891,-25.0854,67.9932,-2.6245
3252718,1.0151,-0.5166,0.7249,13.9771,83.252,19.4702
3252738,1.1094,-0.4172,0.5737,33.3862,2.9907,22.0337
3252758,1.3057,-0.4758,0.553,51.6968,-50.7202,13.1836
3252782,0.9783,-0.4285,0.5564,58.4106,-51.4526,3.479
3252802,1.1989,-0.2723,0.6925,53.2227,-15.8081,2.8687
3252822,1.4189,-0.2653,0.6251,42.2363,-22.3389,12.3291
3252845,1.3333,-0.328,0.5588,40.4663,-15.2588,25.3906
3252865,1.0586,-0.295,0.4633,52.9175,-10.8032,38.147
3252885,0.7765,-0.2367,0.3832,57.9834,-6.5308,46.2646
3252905,0.5956,-0.2377,0.3629,60.2417,-2.5024,51.6968
3252925,0.5433,-0.2804,0.3656,52.9175,7.3242,51.4526
3252945,0.5583,-0.3158,0.3873,48.645,2.3804,45.4712
3252968,0.4751,-0.4368,0.4156,46.6919,-7.6904,41.1987
3252988,0.4125,-0.4957,0.3395,26.3062,-20.752,33.1421
3253011,0.4226,-0.4987,0.3607,-12.0239,-8.0566,27.9541
3253031,0.2468,-0.438,0.354,-12.5732,5.9814,21.3623
3253055,0.0786,-0.2821,0.2789,-33.4473,10.437,6.897
3253076,0.1656,-0.1743,0.3907,-71.2891,26.4282,0.7935
3253096,0.7336,-0.0991,0.4424,-116.9434,64.6362,-1.709
3253116,1.8153,0.2753,1.1185,-166.2598,82.5806,-12.207
3253136,0.6998,0.0723,0.5881,-84.2285,17.7612,1.77
3253156,1.1252,-0.1428,0.4982,-92.7124,-1.2207,6.5918
3253176,1.1711,0.1095,0.4982,-99.9146,22.7661,-9.6436
3253196,1.3789,0.0908,0.6355,-81.604,-16.1743,-27.832
3253216,1.4376,0.1204,0.5812,-67.1387,-31.3721,-34.729
3253236,1.5409,0.0616,0.5968,-55.3589,-22.9492,-32.2266
3253256,1.4425,0.0178,0.5403,-49.1943,-16.2354,-31.189
3253278,1.3292,0.0325,0.5026,-47.4243,-5.0659,-36.0718
3253298,1.0908,0.0597,0.397,-38.0249,5.4321,-38.4521
3253321,0.9155,0.1112,0.3715,-22.2778,0.8545,-40.1611
3253341,0.7885,0.2163,0.3741,-13.6108,-11.7798,-41.1987
3253361,0.6475,0.3011,0.3817,-1.3428,-26.3672,-34.79
3253381,0.4645,0.4171,0.33,28.3813,-60.1807,-24.231
3253401,0.3918,0.5033,0.2603,43.335,-68.0542,-20.1416
3253421,0.2615,0.4729,0.2117,48.0957,-59.2651,-9.4604
3253441,0.1559,0.2148,0.2195,55.603,-37.8418,-3.7842
3253461,0.0804,0.0779,0.2896,67.9321,-19.6533,1.9531
3253481,0.2085,-0.0179,0.2565,94.2383,4.0283,9.4604
3253501,0.9333,-0.3811,0.3562,58.7769,40.1611,18.7378
3253521,1.495,-0.5884,1.0593,-9.7046,86.4258,17.2729
3253541,0.36,-0.4248,0.5057,7.6294,43.0298,33.2031
3253562,1.1283,-0.458,0.6642,40.1001,24.8413,29.1748
3253582,0.9924,-0.4519,0.6899,66.3452,-46.2646,16.1133
3253602,1.1121,-0.2505,0.707,75.8057,-24.7803,5.0659
3253622,1.4528,-0.1697,0.7318,71.8384,-15.1978,23.1323
3253644,1.3274,-0.2842,0.6444,53.4668,-12.8174,32.2266
3253664,1.1553,-0.3975,0.5656,44.9219,-6.4087,40.0391
3253684,0.9211,-0.3113,0.4749,46.4478,1.2817,47.0581
3253704,0.7155,-0.2552,0.4229,45.166,14.3433,54.0771
3253724,0.6049,-0.2474,0.4128,42.8467,16.0522,55.7251
3253744,0.5654,-0.3016,0.3717,38.269,12.5732,52.5513
3253764,0.4647,-0.3469,0.3566,30.0293,9.4604,45.7764
3253785,0.3717,-0.4188,0.3137,23.9258,-2.8076,38.208
3253805,0.3491,-0.4662,0.2518,1.5869,-6.897,28.5645
3253825,0.2709,-0.4167,0.2803,-7.6294,-1.9531,23.4375
3253845,0.1506,-0.3025,0.2538,-21.4844,6.7749,15.8081
3253865,0.1389,-0.3024,0.278,-40.9546,10.0708,10.5591
3253885,0.4099,-0.2592,0.3065,-109.9854,37.5977,4.3945
3253905,1.2793,-0.0513,0.4564,-137.7563,53.1006,1.77
3253925,1.5198,0.2434,0.6423,-75.0122,48.8892,-17.0898
3253945,0.6373,0.0035,0.4774,-84.9609,4.6997,1.9531
3253965,1.2114,0.0536,0.5695,-87.0972,-5.7373,-6.8359
3253985,1.1154,0.2339,0.4827,-92.8345,15.4419,-12.3901
3254005,1.5585,0.0184,0.6703,-89.5996,10.498,-19.2871
3254025,1.611,0.1067,0.5952,-70.3125,-46.3257,-47.5464
3254045,1.5453,0.0535,0.578,-68.2983,-32.1655,-45.7153
3254065,1.4611,0.0522,0.5652,-59.8145,-25.5737,-51.6357
3254085,1.1417,0.1244,0.4839,-54.3823,-15.1978,-55.2368
3254105,0.7759,0.13,0.422,-41.748,-4.3335,-53.9551
3254126,0.6653,0.1361,0.4391,-34.2407,-2.7466,-52.7344
3254146,0.5718,0.1747,0.4501,-17.2119,-18.8599,-49.4995
3254166,0.3542,0.262,0.3882,3.1738,-39.856,-46.1426
3254186,0.288,0.4064,0.2808,21.6675,-52.063,-38.5132
3254206,0.2699,0.4973,0.1962,26.3062,-29.4189,-24.0479
3254226,0.2917,0.3417,0.229,32.0435,-19.104,-13.4277
3254248,0.2048,0.182,0.2241,58.1665,-13.3667,-2.1973
3254268,0.1018,0.0873,0.2307,70.6177,-7.2632,3.54
3254288,0.3315,-0.1311,0.3296,70.7397,15.0757,11.1084
3254308,1.4521,-0.7345,0.424,-16.4795,74.707,4.8828
3254328,1.0931,-0.2427,0.771,23.5596,85.6934,16.9067
3254351,1.2882,-0.3665,0.6389,41.0156,4.5776,19.6533
3254371,1.3854,-0.4232,0.5914,59.5703,-57.4341,3.3569
3254394,0.8484,-0.3158,0.6689,68.0542,-91.6748,-8.3008
3254414,1.0911,-0.2581,0.7732,65.1855,-42.0532,3.6011
3254434,1.1167,-0.2894,0.6968,60.5469,-27.8931,20.0195
3254457,1.0409,-0.2861,0.6261,60.3027,-8.7891,30.3955
3254477,0.933,-0.298,0.5331,62.561,-2.1362,37.1094
3254497,0.8149,-0.3094,0.5125,63.8428,2.6245,41.8701
3254520,0.5646,-0.3401,0.5022,53.4058,5.127,47.2412
3254540,0.4198,-0.3704,0.4497,32.7148,3.6621,51.5747
3254560,0.365,-0.5453,0.3331,20.0195,8.4229,49.8047
3254583,0.4016,-0.6134,0.3091,6.0425,10.0098,35.5225
3254603,0.3623,-0.5071,0.2137,-4.4556,7.9346,25.5127
3254623,0.2949,-0.3597,0.2334,-11.3525,7.3242,23.0713
3254643,0.225,-0.3026,0.2708,-27.5879,6.2866,22.0337
3254663,0.4642,-0.2994,0.3759,-83.4351,33.5693,17.7002
3254683,1.1195,-0.1226,0.5715,-95.7642,57.6782,4.5166
3254703,1.3024,0.2047,0.7357,-72.4487,45.2881,-4.8828
3254723,0.8318,0.0569,0.6359,-88.6841,32.6538,1.8921
3254743,0.912,-0.0741,0.576,-98.1445,33.1421,7.5073
3254763,1.0009,0.0978,0.5466,-98.1445,25.3296,0.2441
3254783,1.4417,0.1266,0.6718,-94.0552,42.7856,-23.8037
3254803,1.6223,0.1315,0.6462,-66.4062,-37.3535,-42.2363
3254823,1.5693,0.1305,0.5554,-53.833,-28.9307,-45.0439
3254843,1.4896,0.0739,0.5535,-57.8613,-12.207,-46.814
3254863,1.1235,0.0088,0.47,-56.8237,-6.958,-46.814
3254883,0.9026,0.0227,0.3873,-55.9082,0.4883,-48.4619
3254903,0.7303,0.1123,0.3389,-51.0254,6.958,-52.6123
3254923,0.756,0.2181,0.3734,-42.7856,9.5825,-54.2603
3254943,0.6608,0.2339,0.3665,-26.062,-6.7749,-48.2178
3254963,0.4506,0.3232,0.3395,-9.4604,-20.5078,-45.5322
3254983,0.4373,0.2819,0.3069,10.498,-41.3208,-32.4707
3255003,0.3813,0.3385,0.3007,26.6113,-42.7856,-27.3438
3255027,0.2336,0.3137,0.2853,47.4243,-34.8511,-16.6626
3255047,0.1143,0.2339,0.265,70.3125,-18.4937,-2.0752
3255067,0.0978,0.0592,0.277,78.6743,5.5542,10.9253
3255091,0.955,-0.5651,0.309,34.79,42.7246,21.0571
3255111,1.3092,-0.527,1.0665,-7.2021,141.9067,2.9907
3255132,1.1799,-0.4423,0.537,15.1978,52.6123,18.3105
3255152,1.3319,-0.4037,0.5089,58.6548,-20.9961,7.8125
3255172,1.1182,-0.3596,0.5768,79.895,-59.7534,-1.77
3255192,1.2892,-0.1591,0.615,87.7686,-36.438,10.9253
3255212,1.4734,-0.2181,0.5463,64.6973,-22.3999,28.3813
3255232,1.286,-0.405,0.51,49.7437,-19.7144,37.0483
3255252,1.0836,-0.3923,0.4573,48.3398,-14.1602,44.5557
3255292,0.7755,-0.2645,0.3418,46.3867,-0.6714,57.312
3255313,0.6074,-0.35,0.4122,33.6304,0.3052,58.8989
3255333,0.467,-0.4447,0.4077,25.7568,-6.958,54.5654
3255353,0.3317,-0.4537,0.3585,18.6768,-11.0474,47.8516
3255373,0.2917,-0.4609,0.3291,8.606,-9.1553,40.8936
3255393,0.3195,-0.4865,0.3208,0.3052,-9.8267,32.8369
3255416,0.2109,-0.3916,0.2582,-12.4512,-9.8877,16.9067
3255436,0.11,-0.2644,0.2874,-30.1514,4.8828,8.1787
3255456,0.1967,-0.1945,0.2998,-52.1851,20.5078,3.7842
3255479,1.0648,-0.1156,0.3046,-115.7227,52.5513,-3.7231
3255501,1.9481,0.4684,0.9166,-117.9199,105.5298,-14.2822
3255521,0.9639,0.0399,0.6198,-71.2891,23.6206,-8.1787
3255543,1.1069,0.0012,0.6121,-81.3599,4.9438,-13.6719
3255563,1.0797,0.173,0.4972,-94.0552,17.334,-5.249
3255583,1.5134,0.0449,0.6609,-94.0552,3.7842,-16.9678
3255603,1.6127,0.0458,0.6283,-79.5288,-35.4614,-41.748
3255623,1.5499,0.0187,0.589,-71.4111,-27.771,-46.6919
3255644,1.4274,0.0432,0.5203,-67.3828,-17.334,-50.293
3255664,1.1442,0.0811,0.3986,-69.1528,-5.6763,-54.8706
3255684,0.9204,0.1353,0.3724,-71.7773,2.6245,-55.2979
3255704,0.6909,0.1741,0.3339,-79.4067,10.1929,-56.1523
3255724,0.5203,0.1486,0.3455,-85.3882,10.1318,-57.4951
3255744,0.3513,0.2887,0.2932,-79.5288,5.8594,-59.082
3255764,0.2524,0.3993,0.2363,-47.1802,-4.0283,-55.3589
3255788,0.288,0.4554,0.202,-4.2725,-12.9395,-42.9077
3255808,0.4027,0.4562,0.153,14.5874,-8.667,-35.1562
3255828,0.4386,0.462,0.1239,24.292,-3.2959,-26.7334
3255848,0.3373,0.2561,0.2843,33.02,-4.3335,-15.9912
3255868,0.9231,-0.6617,-0.1086,-8.4839,-2.4414,-4.4556
3255889,1.7312,-0.1718,1.1998,4.3335,93.9331,-21.4844
3255909,0.7461,-0.3922,0.6479,23.1934,37.4146,1.5869
3255929,1.005,-0.2526,0.6564,54.8706,-6.2866,7.1411
3255949,1.4421,-0.1837,0.5217,60.791,-46.6309,15.9912
3255989,1.0874,-0.3777,0.6593,45.9595,-44.4946,31.9824
3256056,0.9415,-0.1575,0.4291,43.1519,-1.8311,49.3774
3256076,0.7786,-0.2112,0.3934,39.5508,7.5073,55.603
3256096,0.6995,-0.2584,0.413,32.4097,11.1694,57.1899
3256116,0.6011,-0.2717,0.4308,27.9541,11.4746,51.1475
3256136,0.4908,-0.3705,0.4209,31.7383,6.4087,46.2646
3256156,0.4147,-0.4055,0.3595,33.02,5.8594,40.1001
3256176,0.4165,-0.4297,0.3164,27.71,7.8125,36.1938
3256196,0.3905,-0.3156,0.3131,19.6533,5.7373,29.2358
3256216,0.2875,-0.2839,0.2759,12.8784,3.9673,26.062
3256236,0.243,-0.2438,0.2881,-0.5493,4.9438,22.522
3256256,0.5397,-0.1392,0.2047,-36.9263,18.6157,17.2729
3256276,1.0468,0.1074,0.2583,-97.4731,70.5566,7.7515
3256296,1.6029,0.542,0.7661,-55.8472,92.8345,5.9204
3256316,1.0031,0.1824,0.5923,-49.6826,27.5269,17.7612
3256336,1.0555,0.0907,0.4507,-49.7437,-1.2817,20.0806
3256356,1.2533,0.1555,0.5139,-50.8423,14.5874,7.6294
3256376,1.5824,0.0371,0.5763,-37.5366,-36.1328,-13.4888
3256396,1.5677,0.0958,0.5233,-31.7383,-49.7437,-19.043
3256416,1.5499,0.0828,0.4913,-27.0996,-38.8184,-24.5972
3256436,1.337,0.0858,0.3926,-27.2217,-34.9121,-28.4424
3256456,1.2435,0.079,0.3896,-24.0479,-19.3481,-34.729
3256476,0.8701,0.1033,0.3593,-19.4702,-14.4653,-40.7104
3256496,0.694,0.145,0.3407,-8.667,-10.498,-44.3115
3256516,0.6537,0.2103,0.3396,-0.2441,-7.7515,-40.9546
3256536,0.5718,0.3237,0.4343,10.7422,-23.9868,-30.8838
3256557,0.3392,0.3748,0.3831,18.7378,-36.1938,-24.353
3256577,0.2369,0.4329,0.3407,28.5034,-44.3115,-17.334
3256597,0.2644,0.4249,0.3215,44.8608,-44.3115,-9.4604
3256617,0.2437,0.2826,0.1643,49.9268,-25.8179,-4.2114
3256637,0.2358,0.1543,0.1595,57.7393,-17.8833,-4.3335
3256657,0.2498,-0.0215,0.3362,76.7822,-1.77,-0.3662
3256677,0.6699,-0.437,0.178,44.3726,39.917,4.2725
3256699,1.351,-0.0752,1.2966,38.8184,114.0137,-2.0142
3256719,0.9392,-0.4397,0.593,30.5176,39.3677,27.71
3256742,1.322,-0.4196,0.5715,70.4346,-26.4282,15.8691
3256762,1.1732,-0.4661,0.5474,89.3555,-57.4341,11.5356
3256782,1.2861,-0.2909,0.5643,90.8813,-22.8271,16.7236
3256802,1.4384,-0.2477,0.6361,70.1294,-28.3813,33.7524
3256822,1.3555,-0.3276,0.6104,61.7676,-24.9023,42.6025
3256843,1.0997,-0.3431,0.5109,62.1338,-13.4277,49.6216
3256863,0.8264,-0.2778,0.434,65.2466,3.0518,56.9458
3256883,0.6912,-0.2546,0.4065,63.7207,7.8735,61.4014
3256904,0.6449,-0.3295,0.4246,56.3965,10.3149,61.5845
3256924,0.5775,-0.3843,0.3671,44.4336,3.1738,58.0444
3256944,0.4066,-0.4463,0.34,38.5742,-3.2349,48.7061
3256964,0.3477,-0.463,0.3134,28.0151,-5.6152,45.9595
3256984,0.2996,-0.496,0.2732,15.5029,-17.2729,38.0859
3257004,0.2159,-0.4114,0.2662,5.9204,-16.2964,32.1655
3257024,0.1008,-0.3044,0.2703,-8.9722,-2.2583,24.6582
3257044,0.0411,-0.2639,0.241,-26.7334,9.0332,18.9209
3257064,0.2543,-0.2422,0.262,-56.5796,28.0762,9.0942
3257084,1.5431,0.0315,0.5532,-134.0332,89.5386,-9.6436
3257104,2.0033,0.4387,1.1364,-103.8208,133.1787,-23.8037
3257124,0.9838,-0.0303,0.6605,-55.8472,8.2397,-3.1738
3257144,1.4847,0.0709,0.4636,-60.6079,-2.1362,3.2959
3257205,1.5316,0.0732,0.5211,-57.7393,-52.1851,-34.2407
3257225,1.5054,0.0139,0.4946,-50.6592,-18.2495,-37.7808
3257245,1.3112,0.053,0.3893,-48.3398,-19.6533,-40.3442
3257265,1.0969,0.0599,0.3756,-46.5698,-11.1694,-42.1143
3257287,0.8119,0.0941,0.3552,-36.0107,-9.2163,-44.7998
3257307,0.5889,0.2177,0.3507,-16.8457,-18.2495,-44.9829
3257327,0.4099,0.2747,0.3258,-5.3711,-27.832,-40.5884
3257347,0.2985,0.2854,0.3101,7.019,-38.9404,-35.8887
3257367,0.2443,0.3937,0.2485,24.9023,-42.7246,-29.3579
3257387,0.2693,0.421,0.189,35.0952,-28.7476,-11.7188
3257407,0.2688,0.2994,0.27,38.6963,-22.2168,-2.4414
3257427,0.1366,0.2072,0.2828,58.8989,-19.104,4.2114
3257449,0.0908,0.1447,0.4042,73.0591,4.1504,17.2729
3257509,1.0651,-0.476,0.8125,41.9922,44.7388,40.6494
3257563,1.2837,-0.3749,0.7145,81.604,-41.3818,6.1646
3257623,1.0985,-0.329,0.5034,77.7588,-14.4043,49.8047
3257654,0.8582,-0.3004,0.4044,75.8667,-0.5493,54.6265
3257674,0.7167,-0.2723,0.3984,73.3643,1.8921,57.6172
3257694,0.6313,-0.3862,0.4191,65.0024,0.6714,61.9507
3257714,0.475,-0.4476,0.4077,53.772,-7.0801,58.5327
3257734,0.293,-0.453,0.4028,42.4805,-23.4375,48.7061
3257754,0.2233,-0.4918,0.2032,32.8979,-19.3481,41.8091
3257774,0.2421,-0.4705,0.2336,20.813,-13.3057,35.8887
3257794,0.186,-0.2794,0.1736,13.7939,-1.5259,26.3672
3257814,0.1276,-0.2942,0.0709,-0.6714,0.0,24.292
3257854,0.7745,-0.2211,0.4012,-112.4878,33.8135,21.2402
3257894,0.6083,0.1946,0.6273,-57.1899,25.2686,10.437
3258123,0.4756,0.2582,0.3351,-0.3662,-7.3853,-42.3584
3258143,0.3013,0.277,0.304,13.5498,-28.7476,-36.8042
3258163,0.2947,0.3835,0.2222,30.8838,-31.7993,-33.5083
3258184,0.3335,0.3877,0.2067,37.3535,-28.4424,-26.2451
3258224,0.1833,0.2362,0.2214,61.9507,-19.4702,-1.9531
3258248,0.3322,-0.0579,0.3513,79.4678,-0.8545,11.6577
3258330,1.0449,-0.3317,0.5612,97.7783,-31.3721,39.0015
3258455,0.7406,-0.2778,0.389,88.0737,5.127,63.3545
3258495,0.5322,-0.3881,0.3636,78.7964,5.8594,57.4341
3258515,0.4226,-0.3879,0.3379,69.7021,-5.7373,49.9268
3258535,0.369,-0.3877,0.3588,58.3496,-16.6626,44.9829
3258555,0.3046,-0.5052,0.1991,46.2646,-32.8369,39.917
3258575,0.2997,-0.5051,0.1953,25.2075,-23.3154,31.7383
3258595,0.245,-0.3132,0.3245,4.0283,-5.0659,21.9116
3258615,0.1498,-0.2666,0.3109,-5.3711,-0.1831,15.1978
3258636,0.1559,-0.2073,0.2643,-33.6914,12.2681,2.3804
3258658,0.8431,-0.2808,0.1593,-102.9053,41.1377,2.8687
3258678,1.9958,0.3094,1.3035,-155.5176,164.856,-17.1509
3258739,1.0458,0.2463,0.5215,-92.7124,15.3809,-10.9863
3258872,0.7605,0.1598,0.3485,-43.7012,15.3809,-51.0864
3258892,0.6873,0.1792,0.3463,-34.79,9.0942,-48.9502
3258913,0.5245,0.2679,0.3411,-8.3618,-21.7285,-44.7998
3258933,0.4059,0.2723,0.3496,21.4233,-38.3911,-40.7104
3258953,0.3414,0.3561,0.2826,30.3955,-39.3066,-33.7524
3258976,0.3383,0.4825,0.2028,36.1938,-37.9639,-23.9258
3258996,0.3264,0.4083,0.2134,40.0391,-27.832,-7.8735
3259019,0.1698,0.2483,0.2396,54.2603,-25.6958,3.7842
3259041,0.2329,-0.0063,0.3446,74.585,-8.9111,19.5312
3259061,0.8938,-0.4803,0.1182,43.9453,29.7241,23.3765
3259128,1.26,-0.3232,0.5686,62.6831,-31.6772,44.3115
3259205,1.3376,-0.2745,0.6298,63.2935,-13.916,40.1611
3259239,1.0428,-0.2583,0.3956,60.3638,0.8545,39.0015
3259259,0.9056,-0.2206,0.3397,61.0962,4.8218,41.0156
3259279,0.7273,-0.2769,0.3409,55.8472,6.6528,43.1519
3259299,0.6454,-0.3652,0.347,47.2412,3.7842,44.6167
3259322,0.578,-0.458,0.3655,30.2124,-13.0615,42.9077
3259342,0.4208,-0.4896,0.2938,19.8364,-16.8457,33.5083
3259364,0.3545,-0.3857,0.2671,11.6577,-11.9629,28.1982
3259384,0.3118,-0.3248,0.2727,12.6343,-11.5356,23.9258
3259404,0.2135,-0.3308,0.1613,8.4229,-3.479,16.4795
3259424,0.2063,-0.3086,0.1449,-10.1929,-4.6387,10.6812
3259444,0.2444,-0.1992,0.3501,-51.2695,5.3101,7.6294
3259484,2.5216,0.4874,1.5468,-219.5435,129.5166,-3.2959
3259504,1.0463,0.3674,0.6721,-63.5986,39.856,-4.0894
3259524,1.2242,0.0118,0.5165,-82.3975,-13.9771,20.6299
3259544,0.899,0.2528,0.4857,-90.8813,-12.085,-4.0894
3259564,1.3845,0.1198,0.7048,-78.6743,-30.8228,-23.0713
3259584,1.4718,0.0956,0.6249,-49.2554,-44.0674,-36.377
3259605,1.4425,0.0858,0.6263,-55.9692,-33.4473,-42.1753
3259666,0.8905,0.168,0.3972,-40.1611,4.0894,-50.354
3259706,0.6495,0.3226,0.4473,-12.2681,-9.8877,-45.7153
3259726,0.4193,0.2832,0.3207,1.9531,-26.062,-43.457
3259746,0.3173,0.328,0.3076,13.4277,-32.8979,-40.5273
3259767,0.2966,0.4441,0.3135,32.1655,-34.3018,-33.8135
3259791,0.248,0.3807,0.2756,48.1567,-39.0625,-19.4702
3259811,0.2214,0.22,0.2566,58.96,-48.645,-8.0566
3259831,0.0944,0.1688,0.1635,70.2515,-30.2124,3.7231
3259851,0.2611,-0.1525,0.3353,81.3599,2.5024,13.0005
3259871,1.4878,-0.5212,0.3021,14.4653,53.3447,8.1177
3259894,1.057,-0.6851,0.7452,3.6621,68.6646,31.0669
3259976,1.3762,-0.1945,0.8005,94.0552,-17.9443,29.2358
3260056,0.88,-0.3123,0.4634,67.1387,7.2021,55.3589
3260076,0.703,-0.3148,0.4325,63.0493,13.1836,59.7534
3260096,0.5664,-0.3824,0.4355,56.9458,1.4648,58.4717
3260116,0.4858,-0.3783,0.3872,46.3257,-6.5918,53.2837
3260140,0.2478,-0.3643,0.3334,39.1235,-10.376,44.9219
3260160,0.2267,-0.4186,0.2406,28.8696,-8.3008,39.5508
3260181,0.2059,-0.4985,0.168,18.6157,-10.9863,34.5459
3260201,0.1803,-0.306,0.2683,-5.3711,2.8687,22.7051
3260221,0.0028,-0.2286,0.276,-24.5361,15.564,12.8784
3260241,0.1265,-0.1738,0.3265,-60.6689,33.02,6.7749
3260262,0.9928,-0.2772,0.0551,-123.4131,57.4951,5.3101
3260282,2.4076,0.4932,1.1887,-143.0054,131.4697,-25.5127
3260302,0.8546,0.0234,0.5508,-77.2705,31.8604,-8.5449
3260322,1.2108,0.1417,0.6019,-79.5898,2.6245,0.1831
3260345,1.1052,0.2581,0.4578,-93.8721,25.6958,-10.1929
3260368,1.6774,0.0125,0.5764,-81.4819,-46.875,-34.668
3260388,1.5874,0.0824,0.5881,-70.4956,-43.0908,-40.7715
3260408,1.4857,0.0552,0.5911,-60.6079,-25.3906,-46.6309
3260428,1.3048,0.1045,0.452,-55.542,-19.5312,-46.0815
3260448,1.0667,0.114,0.4181,-54.6265,7.3242,-48.4009
3260468,0.804,0.1703,0.3582,-48.7061,10.498,-49.9268
3260488,0.7496,0.1959,0.3159,-33.1421,3.6621,-51.9409
3260511,0.5547,0.274,0.291,-16.3574,-10.9863,-49.0723
3260576,0.3003,0.3287,0.2314,31.25,-25.5737,-30.9448
3260596,0.303,0.1996,0.2092,45.105,-23.3765,-20.752
3260616,0.1384,0.1738,0.1923,49.1333,-18.4326,-14.3433
3260638,0.2186,-0.0115,0.3936,67.1997,-2.8687,-5.6763
3260678,1.5461,-0.174,1.1145,36.9263,95.3979,-5.4932
3260836,1.0044,-0.3596,0.4482,68.4204,3.2959,52.002
3260856,0.8295,-0.2875,0.4229,65.3687,8.5449,56.8848
3260876,0.7365,-0.2778,0.4167,62.439,8.8501,58.8379
3260899,0.5482,-0.3369,0.42,49.8657,4.8828,57.9224
3260919,0.3796,-0.3657,0.3462,31.311,-10.2539,52.6733
3260942,0.3134,-0.4459,0.2955,18.4326,-7.5684,46.0205
3260962,0.3402,-0.5006,0.2439,-0.6104,-4.7607,34.3018
3260982,0.2802,-0.2965,0.238,-5.5542,-2.3193,24.6582
3261002,0.1444,-0.1943,0.1907,-9.2163,-1.4038,14.7705
3261025,0.1075,-0.1969,0.1567,-22.644,2.0752,8.606
3261045,0.5186,-0.2677,0.2102,-76.355,22.8882,2.5635
3261065,1.5465,-0.2317,0.1862,-143.6768,83.313,-5.188
3261086,1.4554,0.2468,0.7072,-101.8677,82.7026,-36.9263
3261106,0.7595,0.1653,0.6672,-87.6465,6.5918,-17.2729
3261126,1.0101,-0.0746,0.526,-90.21,-15.8691,5.0049
3261186,1.6696,0.1143,0.6338,-65.3687,-45.7764,-50.8423
3261224,1.3601,0.0607,0.5295,-59.3872,-29.1138,-52.9785
3261244,1.0101,0.0021,0.3956,-58.5938,-10.9863,-59.6924
3261265,0.7482,0.0374,0.3419,-49.9268,5.0659,-64.6362
3261285,0.6119,0.179,0.4348,-32.2876,15.4419,-66.8335
3261305,0.6293,0.3202,0.4446,5.4321,-5.127,-56.4575
3261325,0.4292,0.3365,0.4125,20.874,-29.6631,-42.6636
3261345,0.2847,0.4413,0.3044,24.6582,-37.7197,-23.8647
3261369,0.2384,0.4045,0.1848,25.5737,-23.4375,-11.9629
3261389,0.3179,0.241,0.1898,30.9448,-18.3105,-1.6479
3261410,0.2678,0.1732,0.1984,34.9731,-21.7285,3.1128
3261430,0.1927,0.0067,0.2416,58.0444,1.4648,4.0894
3261450,0.6868,-0.4346,0.052,55.7861,16.9678,9.5825
3261535,1.1324,-0.3101,0.5695,88.7451,-68.9697,17.4561
3261612,1.0734,-0.3435,0.5149,69.7632,-15.8081,46.6309
3261632,0.9551,-0.293,0.5187,66.4062,2.3193,47.7295
3261652,0.8323,-0.3633,0.4703,61.0962,7.6294,50.4761
3261693,0.6409,-0.4591,0.3342,36.6821,12.146,44.6777
3261713,0.608,-0.4882,0.2903,24.5361,9.7046,38.6353
3261733,0.5325,-0.5031,0.2957,12.5122,3.6011,32.5928
3261753,0.3387,-0.4055,0.2723,7.6904,-16.0522,22.8271
3261774,0.1844,-0.3101,0.2533,5.8594,-18.7378,19.2871
3261794,0.0983,-0.22,0.2086,-7.9346,-18.2495,19.8364
3261814,0.0312,-0.2594,0.213,-39.7949,-8.2397,21.3013
3261834,0.3152,-0.2429,0.1964,-75.0122,20.752,15.3809
3261854,1.1428,-0.0846,0.489,-131.897,90.9424,-0.6104
3261874,1.783,0.2723,0.6439,-66.7725,57.1899,-10.437
3261894,0.9977,0.1759,0.6781,-55.3589,-18.6768,5.0659
3261914,1.0901,-0.0042,0.5154,-59.021,-46.814,11.3525
3261976,1.519,0.0762,0.7638,-58.2886,-34.0576,-15.0757
3261996,1.4586,0.0353,0.6835,-49.9878,-27.71,-21.7285
3262016,1.4143,-0.0172,0.6283,-56.2134,-9.2773,-33.0811
3262036,1.3274,0.0244,0.5518,-54.9927,-1.3428,-35.2783
3262096,0.6746,0.1525,0.4104,-21.9727,4.8218,-52.3071
3262116,0.6019,0.2841,0.3967,-4.2725,-5.188,-49.0723
3262136,0.358,0.3267,0.3291,33.8745,-36.8652,-43.9453
3262156,0.3267,0.3843,0.2291,42.2363,-44.1284,-39.0625
3262176,0.2778,0.3918,0.1425,36.377,-37.9639,-31.7993
3262196,0.2548,0.3638,0.1296,34.8511,-23.8647,-22.1558
3262216,0.2311,0.1311,0.123,53.2837,-16.2964,-4.3335
3262236,0.0952,0.0463,0.13,69.458,-8.3618,9.8877
3262259,0.012,-0.0234,0.4062,75.9277,10.3149,19.4702
3262280,1.2556,-0.6123,0.2067,-9.8267,72.0825,18.1274
3262301,1.6448,-0.475,1.3632,1.5869,127.8687,8.667
3262322,1.0374,-0.35,0.762,40.0391,3.479,24.4751
3262342,0.9989,-0.4476,0.6632,69.0918,-66.3452,21.4844
3262362,0.7394,-0.6179,0.5709,75.8057,-66.5894,10.9253
3262422,1.3284,-0.364,0.6207,52.002,-14.3433,35.6445
3262442,1.1884,-0.3868,0.5166,59.6924,-10.8032,39.1846
3262462,1.0133,-0.3512,0.4579,59.5703,0.7324,42.9688
3262482,0.8184,-0.2689,0.4054,56.5186,4.0283,45.7153
3262505,0.6774,-0.2806,0.4386,52.3682,3.9062,49.0112
3262525,0.5077,-0.3146,0.4158,48.8281,-2.8076,47.7295
3262545,0.3889,-0.3414,0.4379,52.6123,-10.8032,45.2881
3262565,0.3484,-0.429,0.27,46.1426,-18.1274,36.0718
3262585,0.2828,-0.4418,0.1104,36.499,-25.5127,28.1372
3262605,0.2749,-0.4526,0.1519,29.9683,-24.7803,26.9775
3262625,0.1754,-0.2666,0.2115,0.7324,-0.8545,17.9443
3262645,0.0719,-0.1997,0.3177,-35.8276,7.5684,9.7656
3262665,0.2075,-0.104,0.4425,-62.8052,20.874,8.8501
3262685,1.5372,0.1125,0.187,-181.0913,54.9927,24.353
3262705,1.9731,-0.038,2.25,-239.3188,117.7368,-16.2964
3262725,0.8513,0.0697,0.6896,-73.4863,3.6011,6.0425
3262745,1.1528,0.0428,0.6091,-85.6934,-10.6201,-5.5542
3262785,1.564,-0.0643,0.6932,-79.0405,-42.8467,-31.4331
3262805,1.5669,0.0315,0.6407,-66.7114,-36.7432,-38.147
3262825,1.5767,0.0955,0.5837,-62.5,-18.0664,-44.7998
3262845,1.517,0.1079,0.5042,-63.1104,-16.4185,-49.9878
3262867,1.0663,0.0867,0.3911,-63.5376,-0.7324,-56.3965
3262887,0.7622,0.0942,0.3018,-44.2505,-0.1831,-64.9414
3262907,0.542,0.1031,0.3123,-26.6724,-4.6997,-64.5752
3262927,0.5431,0.1239,0.3191,10.1929,-23.4985,-63.7207
3262947,0.4651,0.2408,0.3495,17.7002,-48.0957,-59.3872
3262970,0.2168,0.3729,0.3098,24.7803,-62.1948,-49.2554
3262990,0.2488,0.5151,0.156,29.1748,-44.7388,-25.0854
3263010,0.3771,0.2898,0.3276,17.2729,-10.8032,-11.9019
3263030,0.3179,0.152,0.368,16.7236,0.6104,-3.1128
3263051,0.2455,0.0071,0.4329,43.2129,3.54,8.606
3263071,0.9736,-0.2775,0.3461,-6.1646,51.5137,20.1416
3263091,1.4988,-0.3973,1.132,-12.7563,72.6318,27.1606
3263111,0.9259,-0.441,0.7198,12.9395,22.3389,36.5601
3263131,1.2167,-0.2095,0.7306,45.2271,-13.6108,28.4424
3263194,1.3688,-0.3856,0.7463,74.646,-14.4653,41.4429
3263233,1.1415,-0.3683,0.6161,52.4292,-3.479,44.3726
3263253,0.879,-0.2238,0.5245,56.5796,3.3569,45.9595
3263274,0.6995,-0.186,0.4757,60.9741,10.9863,48.0347
3263295,0.5914,-0.1979,0.4595,64.1479,15.9302,49.0112
3263315,0.4829,-0.2764,0.4376,56.6406,7.1411,46.0205
3263335,0.2675,-0.3242,0.4077,46.0815,0.061,45.2881
3263355,0.2056,-0.3749,0.4036,34.668,-2.2583,41.8091
3263375,0.2144,-0.3943,0.3131,24.1699,2.1973,34.6069
3263395,0.243,-0.4078,0.2548,14.3433,6.0425,24.292
3263415,0.2465,-0.3784,0.1992,3.2349,11.0474,19.8975
3263435,0.1499,-0.2706,0.3636,-26.6724,25.1465,4.7607
3263455,0.4561,-0.0403,0.4802,-61.0352,34.5459,-0.7935
3263475,1.3368,0.2402,0.4615,-101.1963,63.9038,8.9111
3263498,1.2941,-0.2361,0.7853,-130.7373,58.7769,12.5732
3263518,1.0981,0.1926,0.7179,-83.5571,30.0293,12.085
3263539,1.1544,0.0732,0.4076,-83.9233,6.5918,-4.3335
3263579,1.8145,-0.0065,0.6055,-85.9985,-47.0581,-45.2881
3263599,1.559,0.1067,0.5593,-82.0923,-52.9175,-49.9878
3263619,1.4601,0.1063,0.5197,-78.0029,-28.7476,-53.1616
3263639,1.2922,0.1409,0.4344,-73.3032,-19.104,-55.1147
3263659,1.0402,0.1824,0.365,-63.6597,-2.0752,-58.3496
3263679,0.7208,0.1133,0.3083,-56.0303,1.4038,-61.8286
3263700,0.6243,0.1105,0.3085,-44.3115,1.1597,-66.1621
3263720,0.5277,0.1932,0.3138,-19.5923,-11.2915,-71.5332
3263743,0.4001,0.3679,0.3424,6.7749,-28.3203,-66.7725
3263763,0.2855,0.5198,0.3423,25.4517,-35.7666,-51.3306
3263783,0.2626,0.5463,0.2346,19.165,-27.1606,-28.6865
3263803,0.3871,0.3163,0.236,18.9819,-22.9492,-17.2729
3263823,0.2975,0.1815,0.2878,41.687,-12.3901,-6.6528
3263843,0.2662,0.1432,0.437,58.5938,1.5869,-0.4272
3263863,0.7961,-0.2593,0.421,40.7104,26.6113,2.9297
3263883,1.5756,-0.514,1.0389,-13.3667,88.1958,9.3994
3263903,0.8711,-0.347,0.7163,23.4985,43.2739,24.231
3263923,1.1008,-0.2848,0.6516,55.3589,-14.8926,16.4795
3263943,1.088,-0.314,0.5425,62.0117,-55.2979,8.3618
3263963,0.9005,-0.4049,0.6476,65.4297,-37.2925,9.2773
3263983,1.1868,-0.2628,0.6965,64.5752,-24.9634,14.7705
3264003,1.2163,-0.3839,0.6011,53.5278,-7.9956,30.7617
3264023,1.2153,-0.3186,0.5166,52.4292,1.709,32.5928
3264043,1.1923,-0.2861,0.4418,53.2837,3.6621,33.5083
3264064,1.0549,-0.2061,0.3688,51.6357,5.6152,38.8794
3264086,0.9026,-0.1915,0.428,56.0303,9.6436,48.645
3264106,0.679,-0.2257,0.4236,52.6733,7.8125,52.9175
3264126,0.5765,-0.2732,0.3885,43.396,6.2866,53.894
3264146,0.4413,-0.3895,0.3187,28.2593,-3.0518,49.1333
3264166,0.4628,-0.4803,0.2461,19.043,-12.8784,40.8325
3264186,0.4808,-0.3788,0.2164,8.3618,-20.752,34.3018
3264206,0.267,-0.319,0.2043,-1.3428,-18.1274,24.4751
3264226,0.1332,-0.2659,0.1956,-12.085,-13.916,20.1416
3264246,0.2473,-0.3269,0.2,-37.9028,-3.2959,14.3433
3264266,0.7501,-0.2408,0.2253,-90.9424,17.8833,5.8594
3264289,2.0704,0.1799,1.119,-179.6265,97.4121,-16.6016
3264309,1.1385,0.3646,0.9147,-85.8765,49.3774,-19.8364
3264329,1.0758,-0.0658,0.6658,-70.6787,-31.0059,16.3574
3264351,1.0175,0.2599,0.6429,-78.2471,-6.7749,-2.1362
3264371,1.5168,0.0507,0.781,-77.2705,-12.8174,-19.8975
3264391,1.5776,0.0508,0.7507,-70.6787,-39.6118,-40.7715
3264413,1.4437,0.1237,0.6503,-64.3311,-21.4844,-44.0674
3264433,1.3411,0.1409,0.5687,-62.2559,-15.5029,-46.2646
3264453,1.153,0.1202,0.5032,-53.2837,-7.8125,-46.0815
3264494,0.6757,0.1509,0.4165,-29.9072,-5.4321,-48.4009
3264515,0.5292,0.2338,0.4131,-8.8501,-7.1411,-47.9736
3264535,0.3882,0.2778,0.3762,3.54,-23.9868,-42.3584
3264555,0.2015,0.2893,0.2817,20.874,-32.959,-35.0342
3264575,0.2308,0.3904,0.2189,37.0483,-26.1841,-31.0059
3264599,0.24,0.4336,0.2363,48.7671,-22.7051,-19.2261
3264619,0.1819,0.2363,0.2396,48.2178,-18.1274,-2.5024
3264639,-0.0465,0.0859,0.2661,66.3452,-1.4038,8.1787
3264659,0.168,-0.0293,0.2621,86.3037,20.9961,17.0288
3264682,1.248,-0.5062,-0.1595,14.5874,62.1948,18.8599
3264703,2.4628,-0.3969,1.3877,-67.3828,184.5093,35.3394
3264723,1.0305,-0.3682,0.6692,52.063,15.1978,28.6865
3264743,1.3048,-0.2754,0.6194,77.6367,-33.3252,19.6533
3264763,1.0565,-0.3003,0.6527,91.4917,-65.3076,19.9585
3264783,1.2208,-0.2084,0.6215,86.0596,-36.8042,19.3481
3264803,1.4053,-0.2488,0.6317,72.5098,-16.2964,41.687
3264823,1.2812,-0.4268,0.5178,62.3169,-11.6577,48.0957
3264843,1.1219,-0.4119,0.4127,63.4766,-0.4272,50.293
3264863,1.009,-0.347,0.3683,66.1011,7.8735,54.6875
